# %ECSV 0.9
# ---
# datatype:
# - {name: wavelength, unit: Angstrom, datatype: float32}
# - {name: response, datatype: float32}
# meta: !!omap
# - {band_name: SDSS_z}
# - {group_name: DOLORES}
wavelength response
7303.50000 0.0
8115.00000 0.004269
8120.00000 0.004844
8125.00000 0.005504
8130.00000 0.00625
8135.00000 0.007074
8140.00000 0.008091
8145.00000 0.009237
8150.00000 0.010548
8155.00000 0.012071
8160.00000 0.013856
8165.00000 0.015873
8170.00000 0.018316
8175.00000 0.021088
8180.00000 0.024388
8185.00000 0.028205
8190.00000 0.032604
8195.00000 0.037944
8200.00000 0.044191
8205.00000 0.051399
8210.00000 0.060047
8215.00000 0.070193
8220.00000 0.081992
8225.00000 0.096117
8230.00000 0.112197
8235.00000 0.131165
8240.00000 0.153787
8245.00000 0.179505
8250.00000 0.209807
8255.00000 0.242781
8260.00000 0.280703
8265.00000 0.322824
8270.00000 0.368378
8275.00000 0.417936
8280.00000 0.470918
8285.00000 0.523683
8290.00000 0.578573
8295.00000 0.630857
8300.00000 0.680769
8305.00000 0.728011
8310.00000 0.770234
8315.00000 0.807375
8320.00000 0.838903
8325.00000 0.865007
8330.00000 0.886965
8335.00000 0.903294
8340.00000 0.916862
8345.00000 0.926315
8350.00000 0.933541
8355.00000 0.939436
8360.00000 0.942849
8365.00000 0.944824
8370.00000 0.94716
8375.00000 0.948488
8380.00000 0.949312
8385.00000 0.950445
8390.00000 0.950043
8395.00000 0.951363
8400.00000 0.952265
8405.00000 0.952643
8410.00000 0.9544
8415.00000 0.956498
8420.00000 0.956454
8425.00000 0.957495
8430.00000 0.959703
8435.00000 0.960961
8440.00000 0.962235
8445.00000 0.962931
8450.00000 0.963899
8455.00000 0.96622
8460.00000 0.966271
8465.00000 0.968299
8470.00000 0.968128
8475.00000 0.969357
8480.00000 0.969763
8485.00000 0.970809
8490.00000 0.970901
8495.00000 0.970951
8500.00000 0.970384
8505.00000 0.970677
8510.00000 0.970737
8515.00000 0.970637
8520.00000 0.970378
8525.00000 0.970603
8530.00000 0.970598
8535.00000 0.970479
8540.00000 0.970295
8545.00000 0.97101
8550.00000 0.970233
8555.00000 0.971112
8560.00000 0.970221
8565.00000 0.970304
8570.00000 0.970854
8575.00000 0.970346
8580.00000 0.969835
8585.00000 0.970945
8590.00000 0.970423
8595.00000 0.97104
8600.00000 0.970423
8605.00000 0.970921
8610.00000 0.971104
8615.00000 0.971115
8620.00000 0.97062
8625.00000 0.971561
8630.00000 0.97067
8635.00000 0.972389
8640.00000 0.971625
8645.00000 0.972012
8650.00000 0.971513
8655.00000 0.973806
8660.00000 0.972938
8665.00000 0.971815
8670.00000 0.974034
8675.00000 0.973814
8680.00000 0.973382
8685.00000 0.97301
8690.00000 0.973482
8695.00000 0.973083
8700.00000 0.972333
8705.00000 0.971913
8710.00000 0.974128
8715.00000 0.971926
8720.00000 0.972552
8725.00000 0.972776
8730.00000 0.97123
8735.00000 0.970586
8740.00000 0.972035
8745.00000 0.970714
8750.00000 0.972661
8755.00000 0.970445
8760.00000 0.971206
8765.00000 0.969558
8770.00000 0.969609
8775.00000 0.968159
8780.00000 0.967566
8785.00000 0.970559
8790.00000 0.967762
8795.00000 0.967441
8800.00000 0.966028
8805.00000 0.968955
8810.00000 0.965402
8815.00000 0.970719
8820.00000 0.967545
8825.00000 0.967317
8830.00000 0.964121
8835.00000 0.966703
8840.00000 0.969815
8845.00000 0.963851
8850.00000 0.967723
8855.00000 0.96827
8860.00000 0.970424
8865.00000 0.970185
8870.00000 0.969453
8875.00000 0.974655
8880.00000 0.969928
8885.00000 0.969162
8890.00000 0.969546
8895.00000 0.972323
8900.00000 0.974524
8905.00000 0.974859
8910.00000 0.973532
8915.00000 0.973249
8920.00000 0.973487
8925.00000 0.974766
8930.00000 0.974846
8935.00000 0.974924
8940.00000 0.975952
8945.00000 0.974714
8950.00000 0.974926
8955.00000 0.972106
8960.00000 0.976632
8965.00000 0.974087
8970.00000 0.977887
8975.00000 0.975355
8980.00000 0.97632
8985.00000 0.978735
8990.00000 0.981448
8995.00000 0.97364
9000.00000 0.974285
9005.00000 0.973604
9010.00000 0.974035
9015.00000 0.97313
9020.00000 0.974449
9025.00000 0.972914
9030.00000 0.973379
9035.00000 0.972759
9040.00000 0.973099
9045.00000 0.972135
9050.00000 0.9723
9055.00000 0.971052
9060.00000 0.971733
9065.00000 0.970244
9070.00000 0.970561
9075.00000 0.969613
9080.00000 0.96907
9085.00000 0.968729
9090.00000 0.968336
9095.00000 0.967424
9100.00000 0.96735
9105.00000 0.966732
9110.00000 0.965548
9115.00000 0.966075
9120.00000 0.963983
9125.00000 0.96494
9130.00000 0.963238
9135.00000 0.963689
9140.00000 0.962122
9145.00000 0.962688
9150.00000 0.961233
9155.00000 0.961647
9160.00000 0.960773
9165.00000 0.96062
9170.00000 0.960238
9175.00000 0.959535
9180.00000 0.959535
9185.00000 0.959063
9190.00000 0.95894
9195.00000 0.958017
9200.00000 0.959649
9205.00000 0.957327
9210.00000 0.958944
9215.00000 0.957573
9220.00000 0.958457
9225.00000 0.957766
9230.00000 0.958578
9235.00000 0.957479
9240.00000 0.958994
9245.00000 0.958368
9250.00000 0.958708
9255.00000 0.95893
9260.00000 0.958758
9265.00000 0.959958
9270.00000 0.959458
9275.00000 0.96055
9280.00000 0.959762
9285.00000 0.961551
9290.00000 0.96038
9295.00000 0.962513
9300.00000 0.961369
9305.00000 0.963442
9310.00000 0.962723
9315.00000 0.963703
9320.00000 0.963969
9325.00000 0.965173
9330.00000 0.964575
9335.00000 0.965798
9340.00000 0.966063
9345.00000 0.966944
9350.00000 0.967267
9355.00000 0.967338
9360.00000 0.968776
9365.00000 0.968611
9370.00000 0.969431
9375.00000 0.96926
9380.00000 0.970535
9385.00000 0.97043
9390.00000 0.971443
9395.00000 0.970835
9400.00000 0.972383
9405.00000 0.972144
9410.00000 0.972556
9415.00000 0.972414
9420.00000 0.97373
9425.00000 0.973044
9430.00000 0.973963
9435.00000 0.973299
9440.00000 0.974192
9445.00000 0.974269
9450.00000 0.974604
9455.00000 0.974413
9460.00000 0.974911
9465.00000 0.973978
9470.00000 0.97484
9475.00000 0.97464
9480.00000 0.974525
9485.00000 0.974778
9490.00000 0.97428
9495.00000 0.974618
9500.00000 0.974172
9505.00000 0.973915
9510.00000 0.973584
9515.00000 0.974158
9520.00000 0.973105
9525.00000 0.973114
9530.00000 0.972411
9535.00000 0.973315
9540.00000 0.971466
9545.00000 0.972686
9550.00000 0.971832
9555.00000 0.971483
9560.00000 0.970546
9565.00000 0.971966
9570.00000 0.969359
9575.00000 0.970329
9580.00000 0.969495
9585.00000 0.969171
9590.00000 0.969691
9595.00000 0.968063
9600.00000 0.968605
9605.00000 0.968016
9610.00000 0.968769
9615.00000 0.967092
9620.00000 0.967982
9625.00000 0.966532
9630.00000 0.967349
9635.00000 0.966395
9640.00000 0.967187
9645.00000 0.965691
9650.00000 0.96676
9655.00000 0.965921
9660.00000 0.965922
9665.00000 0.966234
9670.00000 0.9656
9675.00000 0.965991
9680.00000 0.966012
9685.00000 0.965722
9690.00000 0.965613
9695.00000 0.965926
9700.00000 0.965806
9705.00000 0.966462
9710.00000 0.965917
9715.00000 0.966652
9720.00000 0.966458
9725.00000 0.966894
9730.00000 0.966842
9735.00000 0.96771
9740.00000 0.966741
9745.00000 0.967729
9750.00000 0.968155
9755.00000 0.968339
9760.00000 0.968416
9765.00000 0.96916
9770.00000 0.968767
9775.00000 0.969948
9780.00000 0.970277
9785.00000 0.970139
9790.00000 0.971487
9795.00000 0.972089
9800.00000 0.971736
9805.00000 0.971921
9810.00000 0.973085
9815.00000 0.972481
9820.00000 0.973825
9825.00000 0.973375
9830.00000 0.974888
9835.00000 0.97403
9840.00000 0.97504
9845.00000 0.975493
9850.00000 0.976191
9855.00000 0.976237
9860.00000 0.97601
9865.00000 0.977028
9870.00000 0.976942
9875.00000 0.977371
9880.00000 0.977042
9885.00000 0.978279
9890.00000 0.97794
9895.00000 0.978393
9900.00000 0.977697
9905.00000 0.979173
9910.00000 0.978385
9915.00000 0.978821
9920.00000 0.978966
9925.00000 0.978533
9930.00000 0.978292
9935.00000 0.978758
9940.00000 0.9782
9945.00000 0.978196
9950.00000 0.978165
9955.00000 0.978046
9960.00000 0.97794
9965.00000 0.976791
9970.00000 0.977243
9975.00000 0.976833
9980.00000 0.976089
9985.00000 0.975912
9990.00000 0.975577
9995.00000 0.975058
10000.00000 0.974446
10005.00000 0.973706
10010.00000 0.973448
10015.00000 0.972671
10020.00000 0.972163
10025.00000 0.971429
10030.00000 0.97103
10035.00000 0.97023
10040.00000 0.968991
10045.00000 0.968818
10050.00000 0.9674
10055.00000 0.966679
10060.00000 0.966427
10065.00000 0.965199
10070.00000 0.964443
10075.00000 0.963192
10080.00000 0.962981
10085.00000 0.96142
10090.00000 0.960879
10095.00000 0.959571
10100.00000 0.95906
10105.00000 0.957955
10110.00000 0.957284
10115.00000 0.956082
10120.00000 0.955371
10125.00000 0.954718
10130.00000 0.953165
10135.00000 0.953338
10140.00000 0.951595
10145.00000 0.951723
10150.00000 0.949791
10155.00000 0.949965
10160.00000 0.947925
10165.00000 0.947997
10170.00000 0.946835
10175.00000 0.94607
10180.00000 0.945863
10185.00000 0.944345
10190.00000 0.944332
10195.00000 0.943189
10200.00000 0.943171
10205.00000 0.941456
10210.00000 0.942588
10215.00000 0.940252
10220.00000 0.940965
10225.00000 0.939866
10230.00000 0.939198
10235.00000 0.939291
10240.00000 0.938677
10245.00000 0.938681
10250.00000 0.937763
10255.00000 0.937961
10260.00000 0.937522
10265.00000 0.938085
10270.00000 0.936921
10275.00000 0.938061
10280.00000 0.936593
10285.00000 0.937659
10290.00000 0.937047
10295.00000 0.936792
10300.00000 0.937076
10305.00000 0.937193
10310.00000 0.937664
10315.00000 0.937247
10320.00000 0.938018
10325.00000 0.937792
10330.00000 0.9387
10335.00000 0.938557
10340.00000 0.939026
10345.00000 0.939053
10350.00000 0.940545
10355.00000 0.939967
10360.00000 0.941341
10365.00000 0.941484
10370.00000 0.941951
10375.00000 0.942571
10380.00000 0.943562
10385.00000 0.943105
10390.00000 0.944935
10395.00000 0.944549
10400.00000 0.946116
10405.00000 0.946482
10410.00000 0.947032
10415.00000 0.94804
10420.00000 0.949031
10425.00000 0.949343
10430.00000 0.950791
10435.00000 0.951279
10440.00000 0.952482
10445.00000 0.953445
10450.00000 0.953629
10455.00000 0.954968
10460.00000 0.95553
10465.00000 0.956677
10470.00000 0.957455
10475.00000 0.958706
10480.00000 0.958876
10485.00000 0.960596
10490.00000 0.960621
10495.00000 0.962497
10500.00000 0.962367
10505.00000 0.964639
10510.00000 0.96407
10515.00000 0.966256
10520.00000 0.965586
10525.00000 0.966881
10530.00000 0.967382
10535.00000 0.96992
10540.00000 0.968754
10545.00000 0.97087
10550.00000 0.970684
10555.00000 0.972007
10560.00000 0.971828
10565.00000 0.974206
10570.00000 0.972985
10575.00000 0.974701
10580.00000 0.974877
10585.00000 0.975702
10590.00000 0.976493
10595.00000 0.976204
10600.00000 0.97691
10605.00000 0.977901
10610.00000 0.977974
10615.00000 0.978173
10620.00000 0.979253
10625.00000 0.97811
10630.00000 0.980169
10635.00000 0.978948
10640.00000 0.980112
10645.00000 0.979738
10650.00000 0.980651
10655.00000 0.979992
10660.00000 0.980662
10665.00000 0.980093
10670.00000 0.981286
10675.00000 0.980241
10680.00000 0.980401
10685.00000 0.980427
10690.00000 0.980208
10695.00000 0.979769
10700.00000 0.980159
10705.00000 0.979571
10710.00000 0.97971
10715.00000 0.979442
10720.00000 0.977972
10725.00000 0.979428
10730.00000 0.977722
10735.00000 0.9782
10740.00000 0.977198
10745.00000 0.977507
10750.00000 0.976427
10755.00000 0.976486
10760.00000 0.975365
10765.00000 0.974765
10770.00000 0.975166
10775.00000 0.974194
10780.00000 0.973967
10785.00000 0.97311
10790.00000 0.972919
10795.00000 0.971172
10800.00000 0.972201
10805.00000 0.970426
10810.00000 0.97045
10815.00000 0.969523
10820.00000 0.969071
10825.00000 0.968048
10830.00000 0.967773
10835.00000 0.967176
10840.00000 0.966674
10845.00000 0.966027
10850.00000 0.964433
10855.00000 0.965414
10860.00000 0.963497
10865.00000 0.963534
10870.00000 0.962565
10875.00000 0.962733
10880.00000 0.960883
10885.00000 0.961518
10890.00000 0.960368
10895.00000 0.959945
10900.00000 0.959871
10905.00000 0.958664
10910.00000 0.959027
10915.00000 0.957369
10920.00000 0.958153
10925.00000 0.957149
10930.00000 0.956859
10935.00000 0.955566
10940.00000 0.957292
10945.00000 0.954724
10950.00000 0.955856
10955.00000 0.954559
10960.00000 0.954691
10965.00000 0.954233
10970.00000 0.953906
10975.00000 0.9536
10980.00000 0.953431
10985.00000 0.953494
10990.00000 0.952823
10995.00000 0.95371
11000.00000 0.952363
11005.00000 0.953622
11010.00000 0.952297
11015.00000 0.953152
11020.00000 0.951716
11025.00000 0.953202
11030.00000 0.952255
11035.00000 0.952761
11040.00000 0.952499
11045.00000 0.953017
11050.00000 0.953091
11055.00000 0.953062
11060.00000 0.952862
11065.00000 0.953781
11070.00000 0.953312
11075.00000 0.953829
11080.00000 0.95428
11085.00000 0.953825
11090.00000 0.955133
11095.00000 0.954464
11100.00000 0.955177
11105.00000 0.955294
11110.00000 0.956196
11115.00000 0.955913
11120.00000 0.956834
11125.00000 0.956318
11130.00000 0.957935
11135.00000 0.95731
11140.00000 0.957957
11145.00000 0.959005
11150.00000 0.959311
11155.00000 0.959381
11160.00000 0.959834
11165.00000 0.960617
11170.00000 0.961042
11175.00000 0.961339
11180.00000 0.961492
11185.00000 0.963313
11190.00000 0.962602
11195.00000 0.96386
11200.00000 0.963669
11205.00000 0.965264
11210.00000 0.963932
11215.00000 0.965437
11220.00000 0.966661
11225.00000 0.966608
11230.00000 0.966931
11235.00000 0.96666
11240.00000 0.968282
11245.00000 0.96872
11250.00000 0.967469
11255.00000 0.968808
11260.00000 0.969735
11265.00000 0.970593
11270.00000 0.970017
11275.00000 0.970734
11280.00000 0.971534
11285.00000 0.970645
11290.00000 0.97097
11295.00000 0.972254
11300.00000 0.971321
11305.00000 0.972752
11310.00000 0.972837
11315.00000 0.973723
11320.00000 0.97178
11325.00000 0.97331
11330.00000 0.973613
11335.00000 0.973503
11340.00000 0.973776
11345.00000 0.973057
11350.00000 0.973808
11355.00000 0.973822
11360.00000 0.973782
11365.00000 0.972802
11370.00000 0.975444
11375.00000 0.973144
11380.00000 0.973313
11385.00000 0.973179
11390.00000 0.974187
11395.00000 0.972369
11400.00000 0.973313
11405.00000 0.973134
11410.00000 0.973142
11415.00000 0.972623
11420.00000 0.972038
11425.00000 0.971933
11430.00000 0.971656
11435.00000 0.971829
11440.00000 0.971108
11445.00000 0.971104
11450.00000 0.969876
11455.00000 0.970254
11460.00000 0.969471
11465.00000 0.969365
11470.00000 0.968172
11475.00000 0.96838
11480.00000 0.967007
11485.00000 0.967339
11490.00000 0.966278
11495.00000 0.965548
11500.00000 0.965168
11505.00000 0.964593
11510.00000 0.963423
11515.00000 0.963331
11520.00000 0.962346
11525.00000 0.962008
11530.00000 0.961193
11535.00000 0.959954
11540.00000 0.959756
11545.00000 0.95837
11550.00000 0.957279
11555.00000 0.957388
11560.00000 0.955859
11565.00000 0.955247
11570.00000 0.954668
11575.00000 0.952994
11580.00000 0.952882
11585.00000 0.951989
11590.00000 0.950379
11595.00000 0.949972
11600.00000 0.949172
11605.00000 0.947949
11610.00000 0.947122
11615.00000 0.945857
11620.00000 0.944946
11625.00000 0.944469
11630.00000 0.943326
11635.00000 0.943021
11640.00000 0.941234
11645.00000 0.941293
11650.00000 0.939429
11655.00000 0.939399
11660.00000 0.937184
11665.00000 0.937721
11670.00000 0.93594
11675.00000 0.935624
11680.00000 0.934425
11685.00000 0.933542
11690.00000 0.932848
11695.00000 0.931477
11700.00000 0.931748
11705.00000 0.929765
11710.00000 0.929926
11715.00000 0.927991
11720.00000 0.928788
11725.00000 0.926355
11730.00000 0.926829
11735.00000 0.92547
11740.00000 0.924743
11745.00000 0.923977
11750.00000 0.924331
11755.00000 0.92241
11760.00000 0.92261
11765.00000 0.921664
11770.00000 0.920781
11775.00000 0.920672
11780.00000 0.920017
11785.00000 0.919338
11790.00000 0.918594
11795.00000 0.918485
11800.00000 0.918248
11805.00000 0.917632
11810.00000 0.916862
11815.00000 0.917025
11820.00000 0.916496
11825.00000 0.915649
11830.00000 0.915883
11835.00000 0.915105
11840.00000 0.915077
11845.00000 0.914731
11850.00000 0.914851
11855.00000 0.914325
11860.00000 0.914473
11865.00000 0.91349
11870.00000 0.914096
11875.00000 0.913961
11880.00000 0.914247
11885.00000 0.913153
11890.00000 0.913601
11895.00000 0.913908
11900.00000 0.91358
11905.00000 0.913712
11910.00000 0.913807
11915.00000 0.914467
11920.00000 0.914251
11925.00000 0.914642
11930.00000 0.915591
11935.00000 0.914748
11940.00000 0.915409
11945.00000 0.916084
11950.00000 0.916238
11955.00000 0.916501
11960.00000 0.916783
11965.00000 0.917408
11970.00000 0.917505
11975.00000 0.918524
11980.00000 0.9176
11985.00000 0.919533
11990.00000 0.919397
11995.00000 0.920448
12000.00000 0.920252
13200.00000 0.0
