# %ECSV 0.9
# ---
# datatype:
# - {name: wavelength, unit: Angstrom, datatype: float32}
# - {name: response, datatype: float32}
# meta: !!omap
# - {band_name: Z}
# - {group_name: LRIS}
wavelength response
8682.95703 0.0
9647.73047 0.004211
9653.79004 0.003975
9659.83984 0.004097
9665.88965 0.004327
9671.95020 0.004325
9678.00000 0.004673
9684.05957 0.004564
9690.11035 0.005279
9696.16992 0.002928
9702.21973 0.01688
9708.28027 0.008909
9714.33008 0.00492
9720.38965 0.005211
9726.44043 0.005327
9732.50000 0.005542
9738.54980 0.005758
9744.61035 0.00577
9750.66016 0.006041
9756.70996 0.006222
9762.76953 0.006284
9768.82031 0.006111
9774.87988 0.006861
9780.92969 0.006763
9786.99023 0.00682
9793.04004 0.007044
9799.09961 0.007428
9805.15039 0.007706
9811.20996 0.007887
9817.25977 0.007997
9823.32031 0.008264
9829.37012 0.008689
9835.42969 0.009203
9841.48047 0.0094
9847.53027 0.009688
9853.58984 0.01026
9859.63965 0.010774
9865.70020 0.011573
9871.75000 0.012127
9877.80957 0.012613
9883.86035 0.013388
9889.91992 0.014299
9895.96973 0.014966
9902.03027 0.016216
9908.08008 0.017404
9914.13965 0.018772
9920.19043 0.01995
9926.25000 0.02188
9932.29980 0.023089
9938.36035 0.025011
9944.41016 0.027456
9950.45996 0.029494
9956.51953 0.032624
9962.57031 0.035699
9968.62988 0.039026
9974.67969 0.042934
9980.74023 0.047549
9986.79004 0.05327
9992.84961 0.060918
9998.90039 0.06609
10005.00000 0.074085
10011.00000 0.083098
10017.09961 0.093505
10023.09961 0.106256
10029.20020 0.121065
10035.20020 0.134215
10041.29980 0.152128
10047.29980 0.172202
10053.40039 0.194377
10059.40039 0.219266
10065.50000 0.247808
10071.59961 0.276236
10077.59961 0.304987
10083.70020 0.338468
10089.70020 0.372135
10095.79980 0.405069
10101.79980 0.437037
10107.90039 0.467711
10113.90039 0.495197
10120.00000 0.519252
10126.09961 0.541203
10132.09961 0.558714
10138.20020 0.572061
10144.20020 0.583691
10150.29980 0.586731
10156.29980 0.589075
10162.40039 0.590529
10168.40039 0.588092
10174.50000 0.585237
10180.50000 0.581023
10186.59961 0.577595
10192.70020 0.572587
10198.70020 0.567893
10204.79980 0.565811
10210.79980 0.563255
10216.90039 0.561147
10222.90039 0.561008
10229.00000 0.560987
10235.00000 0.561849
10241.09961 0.563519
10247.09961 0.566042
10253.20020 0.568796
10259.29980 0.573179
10265.29980 0.575507
10271.40039 0.579441
10277.40039 0.581012
10283.50000 0.583442
10289.50000 0.585279
10295.59961 0.584307
10301.59961 0.582371
10307.70020 0.579827
10313.70020 0.576625
10319.79980 0.574019
10325.90039 0.570777
10331.90039 0.567025
10338.00000 0.566666
10344.00000 0.557791
10350.09961 0.555517
10356.09961 0.552701
10362.20020 0.550006
10368.20020 0.54969
10374.29980 0.550264
10380.29980 0.552232
10386.40039 0.553258
10392.50000 0.556805
10398.50000 0.557955
10404.59961 0.572213
10410.59961 0.580797
10416.70020 0.576312
10422.70020 0.584191
10428.79980 0.589261
10434.79980 0.595111
10440.90039 0.601798
10446.90039 0.607859
10453.00000 0.612803
10459.09961 0.617885
10465.09961 0.62074
10471.20020 0.622248
10477.20020 0.622447
10483.29980 0.621722
10489.29980 0.618704
10495.40039 0.61368
10501.40039 0.60665
10507.50000 0.596559
10513.59961 0.585681
10519.59961 0.571166
10525.70020 0.554554
10531.70020 0.53428
10537.79980 0.511189
10543.79980 0.487363
10549.90039 0.461273
10555.90039 0.434003
10562.00000 0.405246
10568.00000 0.375555
10574.09961 0.347344
10580.20020 0.319551
10586.20020 0.292008
10592.29980 0.266364
10598.29980 0.242006
10604.40039 0.219147
10610.40039 0.197881
10616.50000 0.178065
10622.50000 0.160762
10628.59961 0.145914
10634.59961 0.129456
10640.70020 0.12641
10646.79980 0.111445
10652.79980 0.09602
10658.90039 0.08733
10664.90039 0.078976
10671.00000 0.072015
10677.00000 0.065277
10683.09961 0.05937
10689.09961 0.053875
10695.20020 0.049216
10701.20020 0.045181
10707.29980 0.041764
10713.40039 0.038061
10719.40039 0.035119
10725.50000 0.032469
10731.50000 0.030025
10737.59961 0.027885
10743.59961 0.025785
10749.70020 0.024331
10755.70020 0.022433
10761.79980 0.020907
10767.79980 0.0198
10773.90039 0.018914
10780.00000 0.017587
10786.00000 0.016273
10792.09961 0.015551
10798.09961 0.013828
10804.20020 0.019149
10810.20020 0.014896
10816.29980 0.012439
10822.29980 0.011855
10828.40039 0.011081
10834.50000 0.010788
10840.50000 0.010186
10846.59961 0.010012
10852.59961 0.009721
10858.70020 0.009212
10864.70020 0.008815
10870.79980 0.008485
10876.79980 0.008216
10882.90039 0.007601
10888.90039 0.007415
10895.00000 0.007234
10901.09961 0.006983
10907.09961 0.006796
10913.20020 0.006625
10919.20020 0.006427
10925.29980 0.006346
10931.29980 0.005833
10937.40039 0.006043
10943.40039 0.005942
10949.50000 0.005926
10955.50000 0.006152
10961.59961 0.005755
10967.70020 0.005683
10973.70020 0.005541
10979.79980 0.005311
10985.79980 0.005185
10991.90039 0.005323
10997.90039 0.005247
11004.00000 0.005014
11010.00000 0.005069
11016.09961 0.004824
11022.09961 0.004729
11028.20020 0.004592
11034.29980 0.004529
11040.29980 0.004492
11046.40039 0.004455
11052.40039 0.004788
12157.64062 0.0
