# %ECSV 0.9
# ---
# datatype:
# - {name: wavelength, unit: Angstrom, datatype: float32}
# - {name: response, datatype: float32}
# meta: !!omap
# - {band_name: J}
# - {group_name: NICS}
wavelength response
9505.79980 0.0
10562.00000 0.004
10568.00000 0.004
10574.00000 0.0042
10580.00000 0.0043
10586.00000 0.0045
10592.00000 0.0046
10598.00000 0.0048
10604.00000 0.005
10610.00000 0.0051
10616.00000 0.0053
10622.00000 0.0055
10628.00000 0.0057
10634.00000 0.0058
10640.00000 0.006
10646.00000 0.0062
10652.00000 0.0063
10658.00000 0.0065
10664.00000 0.0066
10670.00000 0.0068
10676.00000 0.0071
10682.00000 0.0074
10688.00000 0.0077
10694.00000 0.008
10700.00000 0.0082
10706.00000 0.0085
10712.00000 0.0088
10718.00000 0.0091
10724.00000 0.0094
10730.00000 0.0098
10736.00000 0.0101
10742.00000 0.0104
10748.00000 0.0108
10754.00000 0.0112
10760.00000 0.0116
10766.00000 0.012
10772.00000 0.0124
10778.00000 0.0129
10784.00000 0.0134
10790.00000 0.014
10796.00000 0.0145
10802.00000 0.018
10808.00000 0.0187
10814.00000 0.0195
10820.00000 0.0203
10826.00000 0.0211
10832.00000 0.0219
10838.00000 0.0228
10844.00000 0.0237
10850.00000 0.0246
10856.00000 0.0255
10862.00000 0.0264
10868.00000 0.0275
10874.00000 0.0287
10880.00000 0.0297
10886.00000 0.0309
10892.00000 0.0322
10898.00000 0.0335
10904.00000 0.0349
10910.00000 0.0364
10916.00000 0.0379
10922.00000 0.0395
10928.00000 0.0412
10934.00000 0.043
10940.00000 0.0448
10946.00000 0.0467
10952.00000 0.0488
10958.00000 0.0511
10964.00000 0.0534
10970.00000 0.056
10976.00000 0.0586
10982.00000 0.0614
10988.00000 0.0643
10994.00000 0.0675
11000.00000 0.0708
11006.00000 0.0742
11012.00000 0.0778
11018.00000 0.0815
11024.00000 0.0854
11030.00000 0.0894
11036.00000 0.0937
11042.00000 0.0982
11048.00000 0.103
11054.00000 0.1079
11060.00000 0.1131
11066.00000 0.1185
11072.00000 0.124
11078.00000 0.1298
11084.00000 0.1358
11090.00000 0.1419
11096.00000 0.1484
11102.00000 0.1551
11108.00000 0.162
11114.00000 0.1691
11120.00000 0.1764
11126.00000 0.1839
11132.00000 0.1915
11138.00000 0.1993
11144.00000 0.2073
11150.00000 0.215
11156.00000 0.2227
11162.00000 0.231
11168.00000 0.2394
11174.00000 0.248
11180.00000 0.2566
11186.00000 0.2658
11192.00000 0.2748
11198.00000 0.2834
11204.00000 0.2921
11210.00000 0.3008
11216.00000 0.3094
11222.00000 0.3177
11228.00000 0.326
11234.00000 0.3343
11240.00000 0.3426
11246.00000 0.3507
11252.00000 0.3588
11258.00000 0.3666
11264.00000 0.3741
11270.00000 0.3816
11276.00000 0.3888
11282.00000 0.3959
11288.00000 0.403
11294.00000 0.4097
11300.00000 0.4161
11306.00000 0.4224
11312.00000 0.4285
11318.00000 0.4341
11324.00000 0.4395
11330.00000 0.4448
11336.00000 0.4502
11342.00000 0.4553
11348.00000 0.4602
11354.00000 0.465
11360.00000 0.4696
11366.00000 0.474
11372.00000 0.4782
11378.00000 0.4823
11384.00000 0.4862
11390.00000 0.49
11396.00000 0.4936
11402.00000 0.4972
11408.00000 0.5007
11414.00000 0.504
11420.00000 0.5073
11426.00000 0.5106
11432.00000 0.5136
11438.00000 0.5164
11444.00000 0.5193
11450.00000 0.5221
11456.00000 0.5248
11462.00000 0.5277
11468.00000 0.5307
11474.00000 0.5333
11480.00000 0.5355
11486.00000 0.5378
11492.00000 0.5402
11498.00000 0.5422
11504.00000 0.5444
11510.00000 0.5469
11516.00000 0.5494
11522.00000 0.5515
11528.00000 0.5536
11534.00000 0.5558
11540.00000 0.5584
11546.00000 0.5606
11552.00000 0.5626
11558.00000 0.5647
11564.00000 0.5666
11570.00000 0.568
11576.00000 0.5696
11582.00000 0.5714
11588.00000 0.5731
11594.00000 0.5746
11600.00000 0.5761
11606.00000 0.5777
11612.00000 0.5792
11618.00000 0.5808
11624.00000 0.5824
11630.00000 0.5839
11636.00000 0.5854
11642.00000 0.5867
11648.00000 0.588
11654.00000 0.5892
11660.00000 0.5901
11666.00000 0.5911
11672.00000 0.5922
11678.00000 0.5932
11684.00000 0.5943
11690.00000 0.5954
11696.00000 0.5965
11702.00000 0.5974
11708.00000 0.5981
11714.00000 0.5988
11720.00000 0.5994
11726.00000 0.6
11732.00000 0.6006
11738.00000 0.6012
11744.00000 0.6018
11750.00000 0.6025
11756.00000 0.6029
11762.00000 0.6032
11768.00000 0.6034
11774.00000 0.6036
11780.00000 0.6037
11786.00000 0.6038
11792.00000 0.6039
11798.00000 0.604
11804.00000 0.604
11810.00000 0.6039
11816.00000 0.6039
11822.00000 0.6038
11828.00000 0.6037
11834.00000 0.6035
11840.00000 0.6033
11846.00000 0.6032
11852.00000 0.603
11858.00000 0.6028
11864.00000 0.6026
11870.00000 0.6024
11876.00000 0.602
11882.00000 0.6017
11888.00000 0.6014
11894.00000 0.601
11900.00000 0.6007
11906.00000 0.6004
11912.00000 0.6001
11918.00000 0.5997
11924.00000 0.5994
11930.00000 0.599
11936.00000 0.5985
11942.00000 0.598
11948.00000 0.5977
11954.00000 0.5972
11960.00000 0.5969
11966.00000 0.5966
11972.00000 0.5964
11978.00000 0.5961
11984.00000 0.5957
11990.00000 0.5954
11996.00000 0.595
12002.00000 0.5947
12008.00000 0.5943
12014.00000 0.5939
12020.00000 0.5934
12026.00000 0.5931
12032.00000 0.5928
12038.00000 0.5927
12044.00000 0.5926
12050.00000 0.5925
12056.00000 0.5922
12062.00000 0.592
12068.00000 0.5917
12074.00000 0.5915
12080.00000 0.5913
12086.00000 0.5912
12092.00000 0.5913
12098.00000 0.5912
12104.00000 0.5907
12110.00000 0.5905
12116.00000 0.5905
12122.00000 0.5904
12128.00000 0.5902
12134.00000 0.5903
12140.00000 0.5905
12146.00000 0.5906
12152.00000 0.5906
12158.00000 0.5907
12164.00000 0.591
12170.00000 0.5913
12176.00000 0.5915
12182.00000 0.5917
12188.00000 0.5919
12194.00000 0.592
12200.00000 0.5922
12206.00000 0.5924
12212.00000 0.5926
12218.00000 0.5929
12224.00000 0.5932
12230.00000 0.5935
12236.00000 0.5937
12242.00000 0.594
12248.00000 0.5942
12254.00000 0.5945
12260.00000 0.5949
12266.00000 0.5952
12272.00000 0.5956
12278.00000 0.5959
12284.00000 0.5963
12290.00000 0.5966
12296.00000 0.5969
12302.00000 0.5972
12308.00000 0.5976
12314.00000 0.598
12320.00000 0.5984
12326.00000 0.5989
12332.00000 0.5992
12338.00000 0.5994
12344.00000 0.5996
12350.00000 0.5999
12356.00000 0.6002
12362.00000 0.6006
12368.00000 0.6011
12374.00000 0.6015
12380.00000 0.6021
12386.00000 0.6027
12392.00000 0.6026
12398.00000 0.6026
12404.00000 0.6029
12410.00000 0.603
12416.00000 0.6034
12422.00000 0.6044
12428.00000 0.6045
12434.00000 0.6042
12440.00000 0.6044
12446.00000 0.604
12452.00000 0.6032
12458.00000 0.6035
12464.00000 0.6046
12470.00000 0.6053
12476.00000 0.6053
12482.00000 0.6048
12488.00000 0.6048
12494.00000 0.6046
12500.00000 0.6042
12506.00000 0.6042
12512.00000 0.605
12518.00000 0.6054
12524.00000 0.6055
12530.00000 0.6055
12536.00000 0.6056
12542.00000 0.6057
12548.00000 0.6057
12554.00000 0.6058
12560.00000 0.6058
12566.00000 0.6058
12572.00000 0.6059
12578.00000 0.606
12584.00000 0.6059
12590.00000 0.6059
12596.00000 0.6059
12602.00000 0.6061
12608.00000 0.6062
12614.00000 0.6064
12620.00000 0.6066
12626.00000 0.6067
12632.00000 0.6069
12638.00000 0.607
12644.00000 0.6073
12650.00000 0.6076
12656.00000 0.6079
12662.00000 0.6082
12668.00000 0.6086
12674.00000 0.609
12680.00000 0.6095
12686.00000 0.61
12692.00000 0.6102
12698.00000 0.6105
12704.00000 0.6109
12710.00000 0.6114
12716.00000 0.6118
12722.00000 0.6123
12728.00000 0.613
12734.00000 0.6136
12740.00000 0.6142
12746.00000 0.6148
12752.00000 0.6155
12758.00000 0.6162
12764.00000 0.6169
12770.00000 0.6177
12776.00000 0.6186
12782.00000 0.6198
12788.00000 0.6207
12794.00000 0.6213
12800.00000 0.622
12806.00000 0.623
12812.00000 0.6237
12818.00000 0.6245
12824.00000 0.6258
12830.00000 0.627
12836.00000 0.6283
12842.00000 0.6295
12848.00000 0.6309
12854.00000 0.6321
12860.00000 0.6335
12866.00000 0.6348
12872.00000 0.6363
12878.00000 0.6376
12884.00000 0.6392
12890.00000 0.6407
12896.00000 0.6421
12902.00000 0.6437
12908.00000 0.6453
12914.00000 0.647
12920.00000 0.6485
12926.00000 0.6501
12932.00000 0.6524
12938.00000 0.6549
12944.00000 0.6561
12950.00000 0.6567
12956.00000 0.6582
12962.00000 0.6597
12968.00000 0.6605
12974.00000 0.662
12980.00000 0.6648
12986.00000 0.6674
12992.00000 0.6694
12998.00000 0.671
13004.00000 0.6727
13010.00000 0.6745
13016.00000 0.6761
13022.00000 0.6776
13028.00000 0.6794
13034.00000 0.6813
13040.00000 0.683
13046.00000 0.6847
13052.00000 0.6863
13058.00000 0.688
13064.00000 0.6896
13070.00000 0.6911
13076.00000 0.6925
13082.00000 0.694
13088.00000 0.6955
13094.00000 0.6969
13100.00000 0.6983
13106.00000 0.6997
13112.00000 0.7008
13118.00000 0.7018
13124.00000 0.7028
13130.00000 0.7038
13136.00000 0.7048
13142.00000 0.7058
13148.00000 0.7067
13154.00000 0.7074
13160.00000 0.7081
13166.00000 0.7088
13172.00000 0.7095
13178.00000 0.7103
13184.00000 0.7113
13190.00000 0.7124
13196.00000 0.7134
13202.00000 0.7139
13208.00000 0.7143
13214.00000 0.7146
13220.00000 0.7142
13226.00000 0.7137
13232.00000 0.7137
13238.00000 0.7138
13244.00000 0.7139
13250.00000 0.7145
13256.00000 0.7152
13262.00000 0.7146
13268.00000 0.714
13274.00000 0.7137
13280.00000 0.7131
13286.00000 0.7123
13292.00000 0.7125
13298.00000 0.7128
13304.00000 0.7121
13310.00000 0.7112
13316.00000 0.7106
13322.00000 0.7098
13328.00000 0.7089
13334.00000 0.7085
13340.00000 0.7087
13346.00000 0.7093
13352.00000 0.7091
13358.00000 0.7076
13364.00000 0.7065
13370.00000 0.7057
13376.00000 0.7043
13382.00000 0.7028
13388.00000 0.7024
13394.00000 0.7025
13400.00000 0.7021
13406.00000 0.7014
13412.00000 0.7008
13418.00000 0.7002
13424.00000 0.6996
13430.00000 0.6991
13436.00000 0.6986
13442.00000 0.698
13448.00000 0.6976
13454.00000 0.6971
13460.00000 0.6966
13466.00000 0.6963
13472.00000 0.696
13478.00000 0.6965
13484.00000 0.6978
13490.00000 0.6975
13496.00000 0.6957
13502.00000 0.6947
13508.00000 0.6942
13514.00000 0.6928
13520.00000 0.6919
13526.00000 0.6928
13532.00000 0.6939
13538.00000 0.6944
13544.00000 0.6946
13550.00000 0.6948
13556.00000 0.6952
13562.00000 0.6955
13568.00000 0.6957
13574.00000 0.6957
13580.00000 0.6962
13586.00000 0.6964
13592.00000 0.6965
13598.00000 0.697
13604.00000 0.6984
13610.00000 0.6995
13616.00000 0.7
13622.00000 0.7003
13628.00000 0.7009
13634.00000 0.7018
13640.00000 0.7022
13646.00000 0.7029
13652.00000 0.704
13658.00000 0.7053
13664.00000 0.706
13670.00000 0.7064
13676.00000 0.7071
13682.00000 0.708
13688.00000 0.7089
13694.00000 0.7116
13700.00000 0.7149
13706.00000 0.7151
13712.00000 0.7141
13718.00000 0.7146
13724.00000 0.7145
13730.00000 0.7129
13736.00000 0.7128
13742.00000 0.7151
13748.00000 0.7169
13754.00000 0.7181
13760.00000 0.7186
13766.00000 0.719
13772.00000 0.7199
13778.00000 0.7204
13784.00000 0.7201
13790.00000 0.7204
13796.00000 0.7214
13802.00000 0.7214
13808.00000 0.7214
13814.00000 0.7228
13820.00000 0.7237
13826.00000 0.7236
13832.00000 0.7239
13838.00000 0.7245
13844.00000 0.7247
13850.00000 0.7245
13856.00000 0.7241
13862.00000 0.7242
13868.00000 0.7245
13874.00000 0.7245
13880.00000 0.7244
13886.00000 0.7243
13892.00000 0.724
13898.00000 0.7231
13904.00000 0.7226
13910.00000 0.7231
13916.00000 0.7234
13922.00000 0.7235
13928.00000 0.7235
13934.00000 0.7235
13940.00000 0.723
13946.00000 0.7224
13952.00000 0.7223
13958.00000 0.7226
13964.00000 0.7224
13970.00000 0.722
13976.00000 0.7212
13982.00000 0.7203
13988.00000 0.7196
13994.00000 0.7192
14000.00000 0.7189
14006.00000 0.7184
14012.00000 0.7176
14018.00000 0.7163
14024.00000 0.7143
14030.00000 0.7122
14036.00000 0.7104
14042.00000 0.7082
14048.00000 0.7055
14054.00000 0.7027
14060.00000 0.6994
14066.00000 0.6951
14072.00000 0.6902
14078.00000 0.6854
14084.00000 0.6797
14090.00000 0.6734
14096.00000 0.6664
14102.00000 0.6586
14108.00000 0.6498
14114.00000 0.6401
14120.00000 0.6297
14126.00000 0.6187
14132.00000 0.607
14138.00000 0.5941
14144.00000 0.5804
14150.00000 0.5661
14156.00000 0.5509
14162.00000 0.5348
14168.00000 0.5182
14174.00000 0.5012
14180.00000 0.4839
14186.00000 0.466
14192.00000 0.448
14198.00000 0.4298
14204.00000 0.4116
14210.00000 0.3933
14216.00000 0.3752
14222.00000 0.3575
14228.00000 0.34
14234.00000 0.3231
14240.00000 0.3066
14246.00000 0.2902
14252.00000 0.2743
14258.00000 0.2591
14264.00000 0.2447
14270.00000 0.2307
14276.00000 0.2177
14282.00000 0.2056
14288.00000 0.1937
14294.00000 0.1824
14300.00000 0.1718
14306.00000 0.1684
14312.00000 0.1585
14318.00000 0.1492
14324.00000 0.1404
14330.00000 0.1322
14336.00000 0.1245
14342.00000 0.1172
14348.00000 0.1103
14354.00000 0.104
14360.00000 0.0979
14366.00000 0.0922
14372.00000 0.0867
14378.00000 0.0816
14384.00000 0.0767
14390.00000 0.0719
14396.00000 0.0674
14402.00000 0.063
14408.00000 0.0588
14414.00000 0.0551
14420.00000 0.0518
14426.00000 0.0488
14432.00000 0.046
14438.00000 0.0435
14444.00000 0.0411
14450.00000 0.0388
14456.00000 0.0366
14462.00000 0.0346
14468.00000 0.0327
14474.00000 0.031
14480.00000 0.0293
14486.00000 0.0278
14492.00000 0.0264
14498.00000 0.0251
14504.00000 0.0239
14510.00000 0.0224
14516.00000 0.0207
14522.00000 0.0194
14528.00000 0.0183
14534.00000 0.0174
14540.00000 0.0164
14546.00000 0.0158
14552.00000 0.0155
14558.00000 0.015
14564.00000 0.0143
14570.00000 0.0136
14576.00000 0.0129
14582.00000 0.0123
14588.00000 0.0118
14594.00000 0.0112
14600.00000 0.0107
14606.00000 0.0102
14612.00000 0.0097
14618.00000 0.0092
14624.00000 0.0089
14630.00000 0.0085
14636.00000 0.0081
14642.00000 0.0077
14648.00000 0.0073
14654.00000 0.0069
14660.00000 0.0065
14666.00000 0.0062
14672.00000 0.0059
14678.00000 0.0056
14684.00000 0.0053
14690.00000 0.0051
14696.00000 0.0049
14702.00000 0.0046
14708.00000 0.0044
14714.00000 0.0042
14720.00000 0.004
16192.00000 0.0
