# %ECSV 0.9
# ---
# datatype:
# - {name: wavelength, unit: Angstrom, datatype: float32}
# - {name: response, datatype: float32}
# meta: !!omap
# - {band_name: F850LP}
# - {group_name: ACS_HRC}
wavelength response
7201.24170 0.0
8001.37988 0.00634723
8002.18994 0.00660718
8003.00000 0.00686714
8003.81006 0.00712975
8004.62012 0.00738923
8005.43018 0.00764729
8006.24023 0.00790817
8007.04980 0.00816731
8007.85986 0.00842645
8008.66992 0.00868669
8009.47998 0.00894552
8010.29004 0.00916313
8011.10010 0.00930422
8011.91016 0.00944529
8012.72021 0.00958618
8013.52979 0.00972708
8014.33984 0.00986788
8015.16016 0.0100101
8015.95996 0.01015
8016.77002 0.0102906
8017.58984 0.0104319
8018.39990 0.0105723
8019.20996 0.0107134
8020.02002 0.0108542
8020.83008 0.0110135
8021.64990 0.0111736
8022.45996 0.0113328
8023.27002 0.0114918
8024.08008 0.0116508
8024.89014 0.0118097
8025.70020 0.0119687
8026.52002 0.0121292
8027.31982 0.0122871
8028.14014 0.0124465
8028.95020 0.0126051
8029.75977 0.0127635
8030.58008 0.0129539
8031.39014 0.0131559
8032.20020 0.0133577
8033.02002 0.0135606
8033.83008 0.0137623
8034.64014 0.0139638
8035.45020 0.0141652
8036.25977 0.0143666
8037.08008 0.0145699
8037.89014 0.01477
8038.70020 0.014971
8039.52002 0.015173
8040.33008 0.015389
8041.14014 0.0156272
8041.95996 0.0158664
8042.77002 0.016103
8043.58008 0.0163408
8044.39990 0.016581
8045.20996 0.0168184
8046.02979 0.0170559
8046.83984 0.0172931
8047.64990 0.0175303
8048.47021 0.0177699
8049.27979 0.0180055
8050.10010 0.0182435
8050.91016 0.0184908
8051.72998 0.0187367
8052.54004 0.0189823
8053.35986 0.0192293
8054.16992 0.0194735
8054.99023 0.0197217
8055.79980 0.0199669
8056.62012 0.0202121
8057.43018 0.0204571
8058.24023 0.020702
8059.06006 0.0209468
8059.87988 0.0211927
8060.68994 0.0214928
8061.50977 0.0218024
8062.31982 0.0221137
8063.14014 0.0224231
8063.95996 0.022734
8064.77002 0.0230414
8065.58008 0.0233505
8066.41016 0.0236627
8067.22021 0.0239712
8068.04004 0.0242797
8068.85010 0.0245883
8069.66992 0.0248965
8070.47998 0.0252207
8071.29980 0.0255581
8072.12012 0.0258934
8072.93994 0.0262304
8073.75000 0.0265653
8074.56982 0.0268999
8075.39014 0.0272365
8076.20020 0.0275692
8077.02002 0.0279032
8077.83984 0.0282412
8078.66016 0.0285751
8079.47021 0.0289087
8080.29004 0.0293076
8081.10010 0.0298255
8081.93018 0.0303462
8082.74023 0.0308638
8083.56006 0.0313811
8084.37988 0.0319011
8085.18994 0.0324177
8086.00977 0.0329343
8086.83008 0.0334506
8087.64990 0.0339666
8088.45996 0.0344822
8089.29004 0.0350034
8090.10986 0.0355137
8090.91992 0.0359927
8091.74023 0.0364713
8092.56006 0.0369497
8093.37988 0.0374304
8094.20020 0.0379085
8095.02002 0.0383861
8095.83984 0.0388661
8096.64990 0.0393433
8097.47021 0.0398203
8098.29004 0.040297
8099.10986 0.0407737
8099.93994 0.041255
8100.75000 0.0418917
8101.56982 0.0425417
8102.39014 0.0431912
8103.20996 0.0438403
8104.02979 0.0444894
8104.85010 0.0451412
8105.66992 0.0457895
8106.49023 0.0464374
8107.31006 0.0470884
8108.12988 0.0477359
8108.95020 0.0483827
8109.77002 0.0490292
8110.58984 0.0496087
8111.41992 0.0501684
8112.24023 0.0507215
8113.06006 0.0512741
8113.87988 0.0518265
8114.68994 0.0523787
8115.52002 0.0529306
8116.33984 0.053485
8117.16016 0.0540361
8117.97998 0.054587
8118.79980 0.0551408
8119.62012 0.0556911
8120.43994 0.0563802
8121.25977 0.0571879
8122.08008 0.0579954
8122.91016 0.0588107
8123.72998 0.0596175
8124.54980 0.0604188
8125.37988 0.0612287
8126.20020 0.0620338
8127.02002 0.0628385
8127.83984 0.0636475
8128.66016 0.0644513
8129.49023 0.0652593
8130.31006 0.0660236
8131.12988 0.0667236
8131.95020 0.0674232
8132.77002 0.0681225
8133.60010 0.0688211
8134.43018 0.0695269
8135.25000 0.0702248
8136.06982 0.0709185
8136.89014 0.0716194
8137.70996 0.0723163
8138.54004 0.0730161
8139.35986 0.0737122
8140.18994 0.0744698
8141.00977 0.0754456
8141.83008 0.0764164
8142.66016 0.0773858
8143.47998 0.0783548
8144.29980 0.0793239
8145.12012 0.0802923
8145.95996 0.0812708
8146.77002 0.0822328
8147.60010 0.0832045
8148.43018 0.0841708
8149.25000 0.0851367
8150.08008 0.0861122
8150.89990 0.0871296
8151.72021 0.0881464
8152.54980 0.0891687
8153.37012 0.0901843
8154.20020 0.0911997
8155.02002 0.0922142
8155.85010 0.0932284
8156.68018 0.0942532
8157.50000 0.0952658
8158.31982 0.0962731
8159.14990 0.0972907
8159.97998 0.098302
8160.79980 0.099411
8161.62988 0.100529
8162.45020 0.10164
8163.27002 0.102745
8164.10986 0.103867
8164.93018 0.104977
8165.75977 0.106086
8166.58008 0.107194
8167.39990 0.108302
8168.22998 0.109415
8169.06006 0.110522
8169.89014 0.111628
8170.72021 0.112771
8171.54004 0.113911
8172.37012 0.115052
8173.20020 0.116198
8174.02002 0.117337
8174.85010 0.118481
8175.68018 0.119619
8176.50000 0.120757
8177.33008 0.121893
8178.14990 0.123029
8178.97998 0.124165
8179.81006 0.125306
8180.64014 0.126578
8181.47021 0.127889
8182.29980 0.129207
8183.12012 0.130517
8183.95020 0.131833
8184.77979 0.133135
8185.60010 0.134442
8186.43994 0.135764
8187.27002 0.137069
8188.08984 0.138375
8188.91992 0.13968
8189.75000 0.140984
8190.56982 0.14235
8191.41016 0.14375
8192.23047 0.145143
8193.07031 0.146543
8193.88965 0.147934
8194.71973 0.149323
8195.54980 0.15072
8196.37988 0.152102
8197.20020 0.153489
8198.04004 0.154892
8198.87012 0.156278
8199.70020 0.157664
8200.53027 0.159186
8201.34961 0.160787
8202.19043 0.162398
8203.01953 0.164001
8203.83984 0.165601
8204.67969 0.167211
8205.50977 0.168813
8206.33984 0.170415
8207.16992 0.172016
8207.99023 0.173617
8208.82031 0.175218
8209.66016 0.176835
8210.49023 0.178279
8211.32031 0.179615
8212.15039 0.180949
8212.98047 0.182285
8213.80957 0.183627
8214.63965 0.18496
8215.46973 0.186295
8216.30957 0.187638
8217.13965 0.188971
8217.96973 0.190306
8218.79980 0.191642
8219.62988 0.192976
8220.46973 0.194674
8221.29980 0.196632
8222.12988 0.198589
8222.95996 0.200544
8223.79004 0.202501
8224.62012 0.204458
8225.45020 0.206424
8226.29004 0.20838
8227.12012 0.210335
8227.95020 0.212302
8228.78027 0.214257
8229.61035 0.216211
8230.45020 0.217878
8231.28027 0.2193
8232.12012 0.220734
8232.95020 0.222154
8233.78027 0.223573
8234.61035 0.224993
8235.44043 0.226412
8236.28027 0.227832
8237.11035 0.229258
8237.94043 0.230677
8238.78027 0.232104
8239.61035 0.233523
8240.45020 0.235087
8241.28027 0.236774
8242.11035 0.238463
8242.94043 0.240149
8243.79004 0.241855
8244.62012 0.243543
8245.45020 0.245231
8246.28027 0.246918
8247.12012 0.248604
8247.95020 0.2503
8248.79004 0.251988
8249.62012 0.253674
8250.45996 0.25562
8251.29004 0.257759
8252.12988 0.259899
8252.95996 0.262041
8253.79004 0.264178
8254.62988 0.266318
8255.46973 0.268481
8256.30957 0.270621
8257.13965 0.272761
8257.96973 0.274899
8258.80957 0.27704
8259.65039 0.279189
8260.48047 0.281429
8261.30957 0.28374
8262.15039 0.286068
8262.99023 0.288378
8263.82031 0.290691
8264.66016 0.293003
8265.49023 0.295316
8266.33008 0.297627
8267.16992 0.299962
8268.00000 0.302262
8268.83984 0.304584
8269.67969 0.306896
8270.50977 0.308989
8271.34961 0.310957
8272.19043 0.312914
8273.01953 0.314861
8273.86035 0.316838
8274.70020 0.318796
8275.54004 0.320753
8276.37012 0.32271
8277.20996 0.324667
8278.04980 0.326646
8278.88965 0.328601
8279.71973 0.330548
8280.55957 0.332631
8281.40039 0.334759
8282.24023 0.336889
8283.08008 0.33903
8283.91016 0.341158
8284.75000 0.343275
8285.58984 0.34543
8286.42969 0.347559
8287.26953 0.349687
8288.09961 0.351814
8288.94043 0.353944
8289.79004 0.356093
8290.62012 0.358477
8291.45996 0.360968
8292.29980 0.363469
8293.13965 0.365959
8293.98047 0.368449
8294.82031 0.370949
8295.65039 0.373426
8296.50000 0.37594
8297.33008 0.378428
8298.16992 0.380919
8299.00977 0.383406
8299.84961 0.385891
8300.69043 0.38808
8301.54004 0.390225
8302.37012 0.392334
8303.20996 0.394455
8304.04980 0.396584
8304.88965 0.398705
8305.73047 0.400838
8306.57031 0.402958
8307.41016 0.405077
8308.25977 0.407207
8309.09961 0.409327
8309.92969 0.411444
8310.76953 0.41258
8311.61035 0.413633
8312.45020 0.414684
8313.29980 0.415742
8314.13965 0.416795
8314.98047 0.417854
8315.82031 0.418906
8316.66016 0.419957
8317.50977 0.421014
8318.34961 0.422065
8319.17969 0.423111
8320.03027 0.424261
8320.87012 0.427559
8321.70996 0.430854
8322.54980 0.434152
8323.40039 0.437449
8324.24023 0.440765
8325.08008 0.444062
8325.91992 0.447357
8326.76953 0.450672
8327.61035 0.453967
8328.45020 0.457265
8329.29980 0.460578
8330.13965 0.463679
8330.96973 0.465779
8331.83008 0.467917
8332.66992 0.470025
8333.50977 0.472137
8334.34961 0.474248
8335.19043 0.47636
8336.04004 0.47848
8336.87988 0.48059
8337.71973 0.482699
8338.57031 0.484819
8339.41016 0.486928
8340.25000 0.489067
8341.09961 0.491296
8341.94043 0.493497
8342.79004 0.495734
8343.62988 0.497948
8344.48047 0.500161
8345.32031 0.502376
8346.16016 0.504589
8347.00977 0.506801
8347.84961 0.509026
8348.70020 0.51124
8349.54004 0.513452
8350.38965 0.515262
8351.23047 0.516572
8352.08008 0.517887
8352.91992 0.519196
8353.75977 0.520497
8354.62012 0.521821
8355.45996 0.523129
8356.29980 0.524438
8357.15039 0.525748
8357.99023 0.527055
8358.83984 0.528365
8359.69043 0.52968
8360.53027 0.532119
8361.37988 0.535243
8362.21973 0.538353
8363.07031 0.541462
8363.91992 0.544589
8364.75977 0.547683
8365.59961 0.55079
8366.45996 0.553933
8367.29980 0.557021
8368.13965 0.560129
8368.99023 0.563252
8369.83984 0.56636
8370.69043 0.568013
8371.53027 0.569313
8372.37988 0.570613
8373.23047 0.571921
8374.08008 0.573222
8374.91992 0.574521
8375.76953 0.57582
8376.61035 0.577118
8377.45996 0.578419
8378.32031 0.579733
8379.16016 0.581025
8380.00977 0.582335
8380.84961 0.58417
8381.70020 0.586004
8382.54980 0.587847
8383.40039 0.589679
8384.25000 0.59151
8385.09961 0.593353
8385.94043 0.595185
8386.79004 0.597017
8387.63965 0.598847
8388.49023 0.60068
8389.33984 0.60253
8390.19043 0.604233
8391.03027 0.605538
8391.88965 0.606849
8392.73047 0.60815
8393.58008 0.609453
8394.42969 0.610764
8395.28027 0.612067
8396.12988 0.613371
8396.98047 0.61468
8397.83008 0.615981
8398.67969 0.617282
8399.53027 0.618584
8400.37988 0.620617
8401.23047 0.623595
8402.08008 0.626525
8402.92969 0.629474
8403.78027 0.632435
8404.62988 0.635381
8405.48047 0.638327
8406.33008 0.641289
8407.17969 0.644237
8408.03027 0.647198
8408.88965 0.650147
8409.73047 0.653092
8410.58008 0.654855
8411.42969 0.65608
8412.28027 0.657306
8413.13965 0.658537
8413.99023 0.659762
8414.83984 0.660987
8415.69043 0.66222
8416.54004 0.663444
8417.40039 0.664677
8418.25000 0.665902
8419.09961 0.667125
8419.95020 0.668357
8420.79980 0.668306
8421.65039 0.668181
8422.50000 0.668056
8423.34961 0.66793
8424.20996 0.667804
8425.05957 0.667679
8425.91016 0.667554
8426.75977 0.667429
8427.62012 0.667301
8428.46973 0.667174
8429.33008 0.667048
8430.17969 0.667698
8431.03027 0.671262
8431.88965 0.674846
8432.74023 0.678416
8433.58984 0.68198
8434.44043 0.685542
8435.29980 0.689108
8436.15039 0.692671
8437.00000 0.696257
8437.84961 0.699816
8438.70996 0.703399
8439.57031 0.706965
8440.41992 0.709212
8441.26953 0.710093
8442.12988 0.710969
8442.98047 0.711848
8443.83984 0.712731
8444.69043 0.713606
8445.54004 0.714481
8446.40039 0.715359
8447.25000 0.716238
8448.11035 0.717119
8448.95996 0.717996
8449.82031 0.718872
8450.66992 0.719458
8451.53027 0.719957
8452.37988 0.720458
8453.24023 0.720961
8454.08984 0.721458
8454.95020 0.72196
8455.80957 0.722462
8456.66016 0.722962
8457.50977 0.723461
8458.37012 0.723961
8459.21973 0.724462
8460.08008 0.725131
8460.94043 0.727351
8461.79004 0.729572
8462.65039 0.731806
8463.50977 0.734025
8464.36035 0.736246
8465.21973 0.738478
8466.07031 0.740687
8466.94043 0.742931
8467.79004 0.745152
8468.65039 0.747374
8469.50000 0.749595
8470.36035 0.751515
8471.20996 0.753018
8472.07031 0.754531
8472.92969 0.756035
8473.78027 0.757542
8474.65039 0.759055
8475.50000 0.760559
8476.36035 0.762073
8477.21973 0.763575
8478.07031 0.765072
8478.94043 0.766591
8479.79004 0.768097
8480.65039 0.769307
8481.50977 0.770432
8482.36035 0.771552
8483.21973 0.772673
8484.08008 0.773799
8484.94043 0.774919
8485.79980 0.77605
8486.66016 0.77717
8487.50977 0.77829
8488.37988 0.779417
8489.23047 0.780532
8490.08984 0.781635
8490.95020 0.782609
8491.80957 0.783574
8492.66992 0.784533
8493.53027 0.785504
8494.38965 0.786467
8495.25000 0.787436
8496.11035 0.7884
8496.96973 0.789368
8497.83008 0.790335
8498.69043 0.791299
8499.54980 0.792263
8500.41016 0.793267
8501.25977 0.794299
8502.12012 0.795337
8502.99023 0.796389
8503.83984 0.797421
8504.70996 0.798464
8505.57031 0.799504
8506.42969 0.800542
8507.29004 0.801585
8508.15039 0.802622
8509.00977 0.803662
8509.87012 0.804706
8510.73047 0.806056
8511.58984 0.807459
8512.45020 0.808864
8513.30957 0.810267
8514.17969 0.811687
8515.04004 0.813083
8515.90039 0.81449
8516.75977 0.815902
8517.62012 0.817305
8518.48047 0.818708
8519.34961 0.820119
8520.20996 0.82137
8521.07031 0.822142
8521.92969 0.822918
8522.79980 0.82369
8523.66016 0.824461
8524.51953 0.825233
8525.37988 0.826005
8526.25000 0.826783
8527.09961 0.82755
8527.96973 0.828321
8528.83008 0.829099
8529.69043 0.829869
8530.55957 0.830816
8531.41992 0.831868
8532.28027 0.832913
8533.15039 0.833966
8534.00977 0.835012
8534.87988 0.836055
8535.74023 0.837102
8536.59961 0.838148
8537.45996 0.839194
8538.33008 0.840246
8539.19043 0.84129
8540.04980 0.842313
8540.91992 0.843
8541.78027 0.843682
8542.65039 0.844366
8543.50977 0.845048
8544.37988 0.845729
8545.25000 0.846413
8546.11035 0.847096
8546.96973 0.847779
8547.83984 0.84846
8548.70020 0.849141
8549.55957 0.849822
8550.42969 0.850322
8551.29980 0.850638
8552.16016 0.850954
8553.03027 0.851267
8553.88965 0.851583
8554.75977 0.851897
8555.62012 0.852212
8556.49023 0.852525
8557.36035 0.852841
8558.21973 0.853156
8559.08984 0.853472
8559.95020 0.853784
8560.82031 0.854789
8561.69043 0.855844
8562.54980 0.856891
8563.41992 0.857939
8564.28027 0.858993
8565.15039 0.860039
8566.00977 0.861087
8566.88965 0.862139
8567.75000 0.863186
8568.62012 0.864234
8569.49023 0.865285
8570.34961 0.866184
8571.21973 0.866872
8572.08008 0.867559
8572.95020 0.868242
8573.82031 0.868934
8574.69043 0.869621
8575.54980 0.870308
8576.41992 0.870998
8577.29004 0.871681
8578.16016 0.872367
8579.03027 0.873057
8579.90039 0.873741
8580.76953 0.874252
8581.62988 0.874736
8582.50000 0.875217
8583.37012 0.875699
8584.23047 0.876183
8585.09961 0.876663
8585.96973 0.877149
8586.83984 0.877629
8587.70996 0.878109
8588.58008 0.878593
8589.45020 0.879076
8590.30957 0.879566
8591.19043 0.880072
8592.05957 0.880574
8592.92969 0.881077
8593.79980 0.88158
8594.66016 0.882084
8595.53027 0.882586
8596.40039 0.883088
8597.26953 0.88359
8598.13965 0.884092
8599.00977 0.884591
8599.87988 0.885097
8600.75000 0.886806
8601.62012 0.888693
8602.50000 0.890595
8603.36035 0.892487
8604.23047 0.894378
8605.11035 0.896281
8605.98047 0.898175
8606.83984 0.900057
8607.71973 0.901958
8608.58008 0.903851
8609.45020 0.905745
8610.33008 0.906797
8611.20020 0.906431
8612.07031 0.906065
8612.94043 0.905698
8613.80957 0.905333
8614.69043 0.904964
8615.54980 0.904601
8616.41992 0.904235
8617.29980 0.903862
8618.16992 0.903493
8619.04004 0.903128
8619.91992 0.902758
8620.79004 0.903702
8621.66016 0.904791
8622.53027 0.905877
8623.40039 0.906961
8624.28027 0.908051
8625.15039 0.909134
8626.01953 0.910223
8626.90039 0.911311
8627.75977 0.912393
8628.63965 0.913478
8629.51953 0.914574
8630.38965 0.914723
8631.25977 0.913691
8632.12988 0.912666
8633.00000 0.911641
8633.87988 0.910604
8634.75000 0.909577
8635.62988 0.908549
8636.50000 0.907517
8637.37988 0.906486
8638.25000 0.905455
8639.12012 0.904426
8639.99023 0.903392
8640.87988 0.905036
8641.75000 0.906679
8642.62012 0.908312
8643.50000 0.909965
8644.37012 0.91161
8645.24023 0.913252
8646.12012 0.914906
8646.99023 0.916549
8647.87012 0.918193
8648.74023 0.919843
8649.62012 0.921491
8650.50000 0.922307
8651.37012 0.922473
8652.24023 0.922641
8653.12012 0.92281
8653.99023 0.92298
8654.87012 0.923146
8655.75000 0.923317
8656.62012 0.923484
8657.50000 0.923652
8658.37012 0.92382
8659.25000 0.923986
8660.12988 0.924245
8661.00000 0.92506
8661.87988 0.925873
8662.75000 0.926687
8663.62988 0.927497
8664.50000 0.928309
8665.37988 0.929126
8666.25977 0.92994
8667.12988 0.930749
8668.00977 0.931568
8668.88965 0.932379
8669.76953 0.933196
8670.65039 0.933462
8671.51953 0.933533
8672.40039 0.933605
8673.28027 0.933679
8674.16016 0.93375
8675.03027 0.933822
8675.91016 0.933894
8676.78027 0.933964
8677.66992 0.934035
8678.54004 0.934106
8679.41992 0.934176
8680.29980 0.934497
8681.17969 0.935302
8682.05957 0.936111
8682.94043 0.936912
8683.80957 0.937716
8684.69043 0.938525
8685.57031 0.939328
8686.45020 0.940131
8687.33008 0.940937
8688.20020 0.941739
8689.08984 0.942547
8689.96973 0.943352
8690.83984 0.943438
8691.73047 0.943491
8692.59961 0.943547
8693.48047 0.943602
8694.36035 0.943659
8695.24023 0.943715
8696.12012 0.943768
8697.00000 0.943823
8697.87988 0.943877
8698.75977 0.943928
8699.63965 0.943982
8700.51953 0.944483
8701.40039 0.9453
8702.28027 0.946115
8703.16016 0.946929
8704.04980 0.947746
8704.91992 0.948556
8705.79980 0.949371
8706.69043 0.950186
8707.57031 0.950998
8708.45020 0.951817
8709.33008 0.952631
8710.20996 0.953244
8711.08984 0.953231
8711.96973 0.953221
8712.84961 0.953208
8713.74023 0.953196
8714.62012 0.953181
8715.50000 0.953166
8716.37988 0.953154
8717.25977 0.953143
8718.15039 0.953127
8719.03027 0.953113
8719.91016 0.953096
8720.79004 0.953385
8721.67969 0.953706
8722.55957 0.954025
8723.44043 0.954342
8724.32031 0.954662
8725.20020 0.954984
8726.08984 0.955304
8726.96973 0.955625
8727.84961 0.955943
8728.74023 0.956263
8729.62012 0.956582
8730.50000 0.956809
8731.38965 0.956969
8732.25977 0.95713
8733.16016 0.957289
8734.04004 0.957448
8734.91992 0.957609
8735.79980 0.957767
8736.67969 0.957925
8737.57031 0.958084
8738.45020 0.958243
8739.33984 0.958401
8740.23047 0.95877
8741.11035 0.95975
8741.99023 0.960733
8742.87988 0.961724
8743.75977 0.962707
8744.63965 0.963683
8745.53027 0.964674
8746.41992 0.965655
8747.29980 0.966636
8748.17969 0.967621
8749.07031 0.968602
8749.95996 0.96959
8750.83984 0.969423
8751.71973 0.969193
8752.61035 0.968962
8753.50000 0.968734
8754.37988 0.968506
8755.26953 0.968276
8756.15039 0.968047
8757.03027 0.96782
8757.92969 0.967586
8758.80957 0.967352
8759.70020 0.967118
8760.58008 0.967441
8761.46973 0.968047
8762.36035 0.968654
8763.24023 0.969258
8764.12988 0.969865
8765.01953 0.970468
8765.90039 0.971075
8766.79004 0.971677
8767.66992 0.972283
8768.55957 0.972885
8769.45996 0.973495
8770.33984 0.973847
8771.21973 0.973796
8772.11035 0.973743
8773.00000 0.973691
8773.88965 0.973641
8774.78027 0.973586
8775.66016 0.973531
8776.54980 0.973478
8777.44043 0.973425
8778.33008 0.973371
8779.21973 0.973315
8780.09961 0.973315
8780.99023 0.973733
8781.88965 0.974154
8782.76953 0.974564
8783.66016 0.974978
8784.54980 0.975396
8785.42969 0.975811
8786.32031 0.976224
8787.21973 0.97664
8788.09961 0.977055
8789.00000 0.977468
8789.87988 0.97788
8790.76953 0.978131
8791.66016 0.978355
8792.54980 0.978577
8793.42969 0.9788
8794.33008 0.979027
8795.21973 0.979251
8796.09961 0.979472
8797.00000 0.979692
8797.88965 0.979915
8798.78027 0.98014
8799.66992 0.980359
8800.55957 0.980389
8801.45020 0.980302
8802.33984 0.980212
8803.23047 0.980126
8804.12012 0.980041
8805.00977 0.979949
8805.90039 0.979861
8806.79004 0.979773
8807.67969 0.979682
8808.58008 0.979589
8809.46973 0.979501
8810.36035 0.979604
8811.25000 0.979996
8812.13965 0.980385
8813.03027 0.980774
8813.92969 0.98117
8814.82031 0.981556
8815.70996 0.981945
8816.59961 0.982333
8817.49023 0.982722
8818.38965 0.983111
8819.26953 0.983499
8820.16992 0.983675
8821.05957 0.982922
8821.95020 0.982173
8822.83984 0.981426
8823.74023 0.980673
8824.62988 0.979921
8825.51953 0.979171
8826.41992 0.978415
8827.30957 0.977661
8828.20020 0.97691
8829.08984 0.976158
8829.99023 0.975405
8830.87988 0.975589
8831.76953 0.975785
8832.66992 0.975979
8833.55957 0.976176
8834.45996 0.976369
8835.34961 0.976562
8836.25000 0.976756
8837.13965 0.976951
8838.04004 0.977148
8838.92969 0.977336
8839.82031 0.977528
8840.71973 0.978397
8841.61035 0.979434
8842.50000 0.980468
8843.40039 0.98151
8844.29004 0.982547
8845.19043 0.98358
8846.08008 0.984621
8846.98047 0.985655
8847.87988 0.986691
8848.76953 0.987726
8849.66992 0.98876
8850.55957 0.989212
8851.45996 0.989317
8852.34961 0.989424
8853.25000 0.989529
8854.13965 0.989632
8855.03027 0.989732
8855.92969 0.989837
8856.83008 0.989941
8857.73047 0.990046
8858.62012 0.990148
8859.51953 0.990249
8860.41992 0.990308
8861.30957 0.990317
8862.20020 0.990323
8863.11035 0.990332
8864.00000 0.990342
8864.90039 0.990346
8865.79980 0.990353
8866.69043 0.990358
8867.58984 0.990363
8868.49023 0.990369
8869.37988 0.990375
8870.28027 0.990398
8871.17969 0.990463
8872.08008 0.990525
8872.98047 0.990591
8873.87012 0.990653
8874.75977 0.990716
8875.66992 0.990777
8876.57031 0.990838
8877.45996 0.990899
8878.36035 0.990961
8879.25977 0.991025
8880.16016 0.991104
8881.05957 0.991291
8881.95020 0.991476
8882.84961 0.991663
8883.75000 0.991846
8884.65039 0.992031
8885.54980 0.992214
8886.44043 0.992394
8887.34961 0.992578
8888.25000 0.992761
8889.15039 0.992942
8890.04980 0.993125
8890.94043 0.993264
8891.83984 0.993408
8892.75000 0.993554
8893.65039 0.993693
8894.54004 0.993835
8895.45020 0.993978
8896.33984 0.994117
8897.25000 0.994257
8898.15039 0.994395
8899.04004 0.994528
8899.95020 0.994672
8900.84961 0.994668
8901.74023 0.994649
8902.65039 0.994633
8903.54980 0.994619
8904.45020 0.994603
8905.34961 0.994584
8906.25000 0.994566
8907.15039 0.994544
8908.04980 0.994527
8908.95020 0.994513
8909.84961 0.994491
8910.75000 0.994147
8911.65039 0.993738
8912.55957 0.993322
8913.45996 0.992917
8914.36035 0.992511
8915.26953 0.992099
8916.16992 0.99169
8917.07031 0.991282
8917.96973 0.990864
8918.87012 0.990454
8919.78027 0.990042
8920.67969 0.990263
8921.58008 0.990691
8922.48047 0.991117
8923.37988 0.991545
8924.28027 0.991976
8925.20020 0.992407
8926.08984 0.992829
8927.00000 0.993258
8927.90039 0.993685
8928.79980 0.994108
8929.70996 0.994535
8930.61035 0.994904
8931.50977 0.99525
8932.41992 0.995595
8933.32031 0.995937
8934.23047 0.99628
8935.12988 0.996622
8936.03027 0.996961
8936.92969 0.997304
8937.83984 0.997646
8938.75000 0.997982
8939.65039 0.998326
8940.55957 0.998376
8941.45996 0.998242
8942.37012 0.99811
8943.26953 0.997978
8944.16992 0.997844
8945.08008 0.997715
8945.99023 0.997579
8946.88965 0.997443
8947.79004 0.997308
8948.70020 0.997171
8949.61035 0.997036
8950.50977 0.996893
8951.41016 0.996742
8952.32031 0.996592
8953.23047 0.99644
8954.12988 0.996286
8955.04004 0.996138
8955.95020 0.995984
8956.84961 0.995833
8957.75977 0.99568
8958.66992 0.995527
8959.57031 0.995373
8960.48047 0.995426
8961.37988 0.995671
8962.29004 0.995916
8963.20020 0.996158
8964.09961 0.996397
8965.00977 0.996642
8965.91992 0.996881
8966.82031 0.997126
8967.73047 0.997364
8968.63965 0.997607
8969.54980 0.997849
8970.45996 0.997832
8971.36035 0.997567
8972.26953 0.997302
8973.17969 0.997034
8974.08008 0.996766
8974.99023 0.996493
8975.90039 0.996229
8976.80957 0.995959
8977.71973 0.995689
8978.62988 0.995421
8979.54004 0.995148
8980.44043 0.995213
8981.34961 0.995625
8982.25977 0.996033
8983.16992 0.996442
8984.08008 0.99685
8984.99023 0.997257
8985.90039 0.997667
8986.79980 0.998072
8987.71973 0.998481
8988.62012 0.998887
8989.54004 0.999294
8990.44043 0.999466
8991.34961 0.999396
8992.26953 0.999326
8993.16992 0.999256
8994.08008 0.999181
8995.00000 0.999113
8995.90039 0.999041
8996.80957 0.998966
8997.71973 0.998895
8998.62988 0.998823
8999.54980 0.998747
9000.45020 0.998771
9001.36035 0.998897
9002.28027 0.999023
9003.19043 0.999145
9004.09961 0.999267
9005.00977 0.999396
9005.91992 0.999514
9006.83008 0.999639
9007.75000 0.99976
9008.65039 0.999882
9009.55957 1.0
9010.48047 0.999738
9011.38965 0.999125
9012.29980 0.998507
9013.20996 0.997894
9014.12012 0.997283
9015.04004 0.996668
9015.95020 0.996054
9016.86035 0.995439
9017.76953 0.994818
9018.67969 0.994206
9019.59961 0.993584
9020.50977 0.993477
9021.41992 0.993771
9022.33008 0.994065
9023.25000 0.994357
9024.16016 0.99465
9025.07031 0.994943
9025.99023 0.995235
9026.90039 0.995522
9027.80957 0.995816
9028.73047 0.996105
9029.63965 0.996393
9030.55957 0.996252
9031.45996 0.995836
9032.38965 0.995414
9033.29980 0.994996
9034.20020 0.994578
9035.12012 0.994157
9036.03027 0.993735
9036.95020 0.993315
9037.87012 0.992891
9038.78027 0.99247
9039.70020 0.992046
9040.61035 0.99198
9041.51953 0.992087
9042.44043 0.992194
9043.34961 0.992298
9044.25977 0.992404
9045.19043 0.992511
9046.09961 0.992615
9047.00977 0.992715
9047.92969 0.992816
9048.83984 0.992918
9049.75977 0.993021
9050.67969 0.992883
9051.58984 0.992662
9052.50977 0.992437
9053.41992 0.992213
9054.33984 0.99199
9055.25977 0.991765
9056.16992 0.991541
9057.08008 0.991315
9058.00000 0.99109
9058.91992 0.990865
9059.83984 0.990635
9060.75000 0.990568
9061.66992 0.990542
9062.58984 0.990512
9063.50000 0.990483
9064.41992 0.990454
9065.33984 0.990424
9066.25977 0.990393
9067.16992 0.990359
9068.08984 0.990326
9069.00000 0.990291
9069.91992 0.990262
9070.83984 0.990219
9071.75977 0.990183
9072.67969 0.990141
9073.59961 0.990097
9074.50977 0.990053
9075.42969 0.990009
9076.34961 0.989967
9077.26953 0.989921
9078.19043 0.989874
9079.11035 0.989829
9080.01953 0.989792
9080.94043 0.989945
9081.86035 0.990094
9082.78027 0.990244
9083.70020 0.990397
9084.61035 0.990547
9085.54004 0.990696
9086.45996 0.990845
9087.37012 0.990993
9088.29980 0.991142
9089.21973 0.99129
9090.12988 0.991328
9091.05957 0.990727
9091.98047 0.99013
9092.88965 0.989533
9093.80957 0.988938
9094.73047 0.988338
9095.65039 0.987733
9096.57031 0.987134
9097.49023 0.986535
9098.41992 0.985932
9099.33008 0.985333
9100.25000 0.984986
9101.17969 0.985311
9102.09961 0.98563
9103.01953 0.985956
9103.94043 0.986276
9104.86035 0.986597
9105.78027 0.986916
9106.70020 0.987234
9107.62012 0.98755
9108.54980 0.987869
9109.46973 0.988186
9110.38965 0.988237
9111.30957 0.987918
9112.23047 0.9876
9113.16016 0.98728
9114.08008 0.986956
9115.00000 0.986641
9115.91992 0.98632
9116.84961 0.986001
9117.76953 0.985681
9118.69043 0.985356
9119.61035 0.985036
9120.53027 0.984974
9121.45996 0.985103
9122.37988 0.985233
9123.29980 0.985362
9124.23047 0.985493
9125.15039 0.985619
9126.07031 0.985748
9127.00000 0.985869
9127.91992 0.985997
9128.83984 0.986126
9129.76953 0.986251
9130.69043 0.985884
9131.61035 0.985352
9132.53027 0.984821
9133.45996 0.984285
9134.38965 0.98375
9135.30957 0.983216
9136.24023 0.982681
9137.16016 0.982147
9138.08008 0.981608
9139.00977 0.981072
9139.92969 0.980538
9140.84961 0.980605
9141.78027 0.980726
9142.70996 0.980842
9143.62988 0.980962
9144.55957 0.981077
9145.48047 0.981192
9146.41016 0.981308
9147.33008 0.981422
9148.25977 0.981538
9149.17969 0.98165
9150.11035 0.98172
9151.03027 0.981461
9151.95996 0.9812
9152.88965 0.980938
9153.82031 0.980676
9154.74023 0.980413
9155.66992 0.980153
9156.58984 0.97989
9157.51953 0.979624
9158.44043 0.979358
9159.37012 0.979093
9160.29980 0.979194
9161.21973 0.980065
9162.15039 0.980946
9163.08008 0.981819
9164.00977 0.98269
9164.92969 0.983566
9165.84961 0.984426
9166.79004 0.985305
9167.71973 0.986169
9168.63965 0.987034
9169.57031 0.987908
9170.50000 0.987547
9171.41992 0.986121
9172.34961 0.984692
9173.28027 0.983272
9174.20996 0.981843
9175.13965 0.980415
9176.07031 0.978994
9177.00000 0.977568
9177.91992 0.976149
9178.84961 0.974723
9179.78027 0.97328
9180.70996 0.973035
9181.62988 0.973153
9182.57031 0.973266
9183.49023 0.973376
9184.42969 0.973491
9185.34961 0.973602
9186.28027 0.973713
9187.21973 0.973827
9188.13965 0.973935
9189.07031 0.974041
9190.00000 0.974144
9190.92969 0.973946
9191.86035 0.973748
9192.79980 0.973547
9193.71973 0.973346
9194.65039 0.973141
9195.58008 0.97294
9196.50977 0.972736
9197.44043 0.97253
9198.37012 0.972327
9199.29980 0.972125
9200.24023 0.971994
9201.16992 0.972094
9202.09961 0.972191
9203.01953 0.972284
9203.95020 0.972382
9204.90039 0.972471
9205.82031 0.972569
9206.75000 0.972664
9207.67969 0.972755
9208.61035 0.972845
9209.54980 0.972936
9210.48047 0.97253
9211.41016 0.971659
9212.33984 0.970785
9213.28027 0.96991
9214.20996 0.969038
9215.13965 0.968158
9216.07031 0.967291
9217.00000 0.966416
9217.94043 0.965542
9218.87012 0.964667
9219.79980 0.963794
9220.74023 0.963756
9221.66992 0.963946
9222.59961 0.964136
9223.53027 0.964327
9224.46973 0.964514
9225.40039 0.964703
9226.33008 0.96489
9227.26953 0.965073
9228.20020 0.965259
9229.12988 0.965448
9230.05957 0.965581
9231.00000 0.96507
9231.92969 0.964564
9232.87012 0.964057
9233.80957 0.963543
9234.74023 0.963034
9235.66992 0.962524
9236.61035 0.962011
9237.54004 0.9615
9238.48047 0.960986
9239.41016 0.960477
9240.34961 0.960125
9241.28027 0.960041
9242.20996 0.95996
9243.15039 0.959875
9244.08008 0.959787
9245.01953 0.959704
9245.95020 0.959621
9246.88965 0.959533
9247.83008 0.959445
9248.76953 0.959356
9249.70020 0.959266
9250.62988 0.958759
9251.57031 0.958052
9252.50977 0.957346
9253.44043 0.956637
9254.37988 0.95593
9255.30957 0.955223
9256.25000 0.954512
9257.19043 0.953798
9258.12012 0.95309
9259.05957 0.952378
9260.00000 0.95167
9260.92969 0.951917
9261.87012 0.952158
9262.80957 0.952404
9263.75000 0.952651
9264.69043 0.952898
9265.62012 0.95314
9266.55957 0.953384
9267.49023 0.953626
9268.42969 0.953864
9269.37012 0.954105
9270.30957 0.95415
9271.25000 0.953807
9272.19043 0.953464
9273.12012 0.953122
9274.05957 0.95277
9275.00000 0.952427
9275.94043 0.952085
9276.87012 0.951738
9277.82031 0.951386
9278.75000 0.951041
9279.69043 0.950693
9280.62988 0.95041
9281.57031 0.950159
9282.50977 0.949909
9283.45020 0.94966
9284.38965 0.949408
9285.33008 0.949155
9286.26953 0.948904
9287.20020 0.948652
9288.15039 0.948394
9289.08984 0.948144
9290.03027 0.947883
9290.96973 0.947622
9291.91016 0.947368
9292.84961 0.947109
9293.78027 0.946846
9294.71973 0.946585
9295.66992 0.946324
9296.59961 0.946059
9297.54980 0.945794
9298.49023 0.94553
9299.42969 0.945266
9300.37012 0.944943
9301.30957 0.944536
9302.25000 0.944131
9303.20020 0.943716
9304.13965 0.943309
9305.08008 0.9429
9306.01953 0.942494
9306.95996 0.942078
9307.90039 0.941665
9308.83984 0.941252
9309.78027 0.940839
9310.73047 0.940111
9311.66992 0.93929
9312.61035 0.938472
9313.55957 0.937649
9314.50000 0.93683
9315.42969 0.936016
9316.37988 0.935188
9317.32031 0.934367
9318.25977 0.933547
9319.20996 0.93272
9320.15039 0.932019
9321.08984 0.931922
9322.04004 0.931823
9322.98047 0.931726
9323.91992 0.931631
9324.87012 0.931526
9325.80957 0.931424
9326.75000 0.931328
9327.69043 0.931229
9328.63965 0.931123
9329.58984 0.931017
9330.51953 0.930919
9331.46973 0.930823
9332.41992 0.930728
9333.36035 0.93063
9334.30957 0.93053
9335.25000 0.930435
9336.19043 0.930334
9337.13965 0.930229
9338.08008 0.93013
9339.03027 0.930027
9339.96973 0.929927
9340.91016 0.929458
9341.87012 0.92897
9342.80957 0.928486
9343.75000 0.928006
9344.70020 0.92752
9345.63965 0.927038
9346.58984 0.926555
9347.54004 0.926065
9348.48047 0.925579
9349.41992 0.925093
9350.37988 0.924571
9351.32031 0.924002
9352.25977 0.92343
9353.20996 0.922859
9354.15039 0.922288
9355.11035 0.921708
9356.04980 0.921139
9356.99023 0.92056
9357.94043 0.919987
9358.88965 0.919415
9359.83008 0.918838
9360.78027 0.918629
9361.73047 0.918498
9362.67969 0.918369
9363.62988 0.918238
9364.57031 0.918103
9365.51953 0.917968
9366.46973 0.917835
9367.41016 0.917697
9368.37012 0.91756
9369.30957 0.917426
9370.25977 0.917164
9371.20996 0.916577
9372.15039 0.915994
9373.11035 0.915405
9374.04980 0.914819
9375.00000 0.914226
9375.95020 0.913636
9376.90039 0.913054
9377.84961 0.912464
9378.79004 0.911872
9379.74023 0.911283
9380.69043 0.910966
9381.63965 0.910748
9382.58984 0.910528
9383.54004 0.910309
9384.49023 0.910091
9385.44043 0.909869
9386.38965 0.909648
9387.33984 0.909428
9388.29004 0.909201
9389.24023 0.908976
9390.19043 0.908607
9391.13965 0.907645
9392.08984 0.90668
9393.04004 0.905719
9393.99023 0.904753
9394.94043 0.903789
9395.88965 0.902826
9396.83984 0.901856
9397.79004 0.900892
9398.74023 0.89993
9399.69043 0.898959
9400.65039 0.898471
9401.58984 0.898208
9402.54980 0.89794
9403.50000 0.897672
9404.45020 0.8974
9405.40039 0.897129
9406.34961 0.896859
9407.30957 0.896584
9408.25000 0.896313
9409.20020 0.89604
9410.16016 0.895639
9411.11035 0.894657
9412.05957 0.893671
9413.01953 0.892677
9413.96973 0.891692
9414.91992 0.890706
9415.87988 0.889717
9416.83008 0.88873
9417.78027 0.887741
9418.73047 0.886755
9419.67969 0.885768
9420.63965 0.885241
9421.58984 0.88495
9422.54004 0.884658
9423.50000 0.884357
9424.45020 0.884059
9425.40039 0.883763
9426.36035 0.883464
9427.30957 0.883165
9428.26953 0.882862
9429.21973 0.882559
9430.16992 0.882195
9431.12988 0.881555
9432.08008 0.880914
9433.03027 0.88027
9433.99023 0.879627
9434.94043 0.878977
9435.90039 0.878327
9436.84961 0.877677
9437.80957 0.87703
9438.76953 0.87638
9439.71973 0.875733
9440.66992 0.875199
9441.62988 0.874712
9442.58984 0.874228
9443.54004 0.87374
9444.49023 0.873253
9445.45020 0.872764
9446.40039 0.872276
9447.36035 0.871787
9448.32031 0.871294
9449.28027 0.870798
9450.23047 0.87018
9451.19043 0.86916
9452.15039 0.868136
9453.09961 0.867123
9454.05957 0.866103
9455.01953 0.865083
9455.96973 0.864066
9456.91992 0.863055
9457.87988 0.862028
9458.83984 0.861009
9459.79980 0.859988
9460.75000 0.859375
9461.70996 0.858872
9462.66992 0.858359
9463.62012 0.857852
9464.58008 0.857344
9465.54004 0.856832
9466.49023 0.856325
9467.45020 0.855813
9468.41992 0.855294
9469.37012 0.854781
9470.33008 0.854251
9471.29004 0.853684
9472.24023 0.853117
9473.20020 0.852548
9474.16016 0.851983
9475.12012 0.851415
9476.08008 0.850837
9477.04004 0.850271
9478.00000 0.849694
9478.95996 0.849114
9479.91016 0.848545
9480.87988 0.847931
9481.83008 0.847316
9482.79004 0.846701
9483.75000 0.846083
9484.70996 0.845465
9485.66992 0.844843
9486.62988 0.844221
9487.58984 0.843603
9488.54980 0.84298
9489.50977 0.842353
9490.46973 0.841612
9491.42969 0.840738
9492.38965 0.839873
9493.34961 0.839003
9494.32031 0.838123
9495.26953 0.837257
9496.23047 0.836386
9497.19043 0.835508
9498.15039 0.834635
9499.11035 0.833762
9500.08008 0.83288
9501.04004 0.831969
9502.00000 0.831059
9502.95996 0.830146
9503.91992 0.829239
9504.88965 0.828322
9505.83984 0.827416
9506.79980 0.826505
9507.76953 0.825583
9508.73047 0.824671
9509.69043 0.82376
9510.66016 0.82283
9511.62012 0.821909
9512.58008 0.82098
9513.54004 0.820058
9514.50000 0.819133
9515.46973 0.818198
9516.42969 0.817273
9517.38965 0.816343
9518.34961 0.815412
9519.32031 0.814485
9520.28027 0.813561
9521.25000 0.812641
9522.20996 0.81173
9523.16992 0.810813
9524.13965 0.809895
9525.09961 0.80898
9526.07031 0.808057
9527.03027 0.807136
9527.99023 0.806227
9528.95996 0.805303
9529.91992 0.80438
9530.87988 0.803432
9531.84961 0.802472
9532.80957 0.801514
9533.78027 0.800556
9534.74023 0.799595
9535.70020 0.798635
9536.66992 0.797673
9537.63965 0.796714
9538.59961 0.795753
9539.57031 0.794791
9540.53027 0.794118
9541.49023 0.793672
9542.45996 0.793218
9543.42969 0.792771
9544.38965 0.792327
9545.34961 0.791875
9546.32031 0.791419
9547.29004 0.790963
9548.25000 0.790511
9549.21973 0.790054
9550.19043 0.789592
9551.15039 0.78913
9552.12012 0.788669
9553.08984 0.788197
9554.04980 0.787727
9555.01953 0.787263
9555.99023 0.786796
9556.95020 0.786322
9557.91992 0.785849
9558.88965 0.785376
9559.84961 0.7849
9560.82031 0.784402
9561.79004 0.783907
9562.75000 0.783412
9563.73047 0.782906
9564.69043 0.782405
9565.66016 0.781898
9566.62988 0.781396
9567.58984 0.78089
9568.57031 0.780381
9569.53027 0.779875
9570.50000 0.77938
9571.46973 0.7789
9572.42969 0.778419
9573.40039 0.777935
9574.37012 0.777446
9575.33984 0.776958
9576.30957 0.776474
9577.28027 0.775989
9578.25000 0.775496
9579.21973 0.775004
9580.19043 0.77444
9581.16016 0.773593
9582.12988 0.772737
9583.09961 0.771889
9584.05957 0.771037
9585.03027 0.77019
9586.00000 0.76934
9586.96973 0.768484
9587.94043 0.767631
9588.91016 0.766775
9589.88965 0.765913
9590.84961 0.765041
9591.82031 0.764166
9592.79980 0.763282
9593.76953 0.762408
9594.73047 0.761534
9595.70996 0.760646
9596.66992 0.759772
9597.63965 0.758892
9598.62012 0.758003
9599.58984 0.757119
9600.55957 0.756209
9601.53027 0.75529
9602.50000 0.754368
9603.48047 0.753444
9604.45020 0.752527
9605.41992 0.751604
9606.38965 0.750677
9607.36035 0.749751
9608.33008 0.748825
9609.30957 0.747894
9610.28027 0.746975
9611.25000 0.746042
9612.21973 0.745116
9613.19043 0.744185
9614.16992 0.743257
9615.13965 0.742323
9616.11035 0.741396
9617.08984 0.740461
9618.05957 0.73953
9619.03027 0.738595
9620.00977 0.737659
9620.98047 0.736868
9621.95996 0.73607
9622.92969 0.73528
9623.90039 0.734485
9624.87988 0.733682
9625.84961 0.732887
9626.82031 0.732087
9627.79980 0.731285
9628.76953 0.730485
9629.74023 0.729681
9630.71973 0.728888
9631.69043 0.728101
9632.66992 0.72731
9633.65039 0.726527
9634.61035 0.72574
9635.59961 0.72494
9636.55957 0.724154
9637.54004 0.723362
9638.51953 0.722566
9639.49023 0.721774
9640.46973 0.720979
9641.44043 0.72018
9642.41992 0.719381
9643.40039 0.718577
9644.37012 0.717778
9645.34961 0.716976
9646.33008 0.71617
9647.29004 0.715375
9648.26953 0.714569
9649.25000 0.713764
9650.21973 0.712947
9651.20020 0.712107
9652.17969 0.711263
9653.15039 0.710418
9654.12988 0.709579
9655.11035 0.708734
9656.08008 0.707891
9657.07031 0.707039
9658.04004 0.706201
9659.01953 0.705352
9660.00000 0.704501
9660.96973 0.703512
9661.94043 0.702514
9662.91992 0.701516
9663.90039 0.70052
9664.87988 0.699514
9665.86035 0.698512
9666.83984 0.697513
9667.82031 0.696509
9668.79004 0.69551
9669.76953 0.694509
9670.75000 0.693495
9671.73047 0.69249
9672.70996 0.691482
9673.67969 0.690468
9674.66016 0.689458
9675.63965 0.688444
9676.62012 0.687433
9677.59961 0.686419
9678.58008 0.6854
9679.55957 0.684388
9680.54004 0.683369
9681.51953 0.68234
9682.50000 0.681319
9683.48047 0.680297
9684.45996 0.679271
9685.44043 0.678245
9686.41992 0.67722
9687.40039 0.676196
9688.37012 0.675169
9689.36035 0.674138
9690.33984 0.673116
9691.32031 0.672106
9692.29980 0.671093
9693.28027 0.670083
9694.25977 0.669074
9695.24023 0.668055
9696.21973 0.667043
9697.20996 0.666024
9698.19043 0.665011
9699.16992 0.663998
9700.15039 0.663005
9701.12988 0.662112
9702.09961 0.661223
9703.08984 0.660327
9704.07031 0.659434
9705.04980 0.658541
9706.04004 0.657642
9707.01953 0.656746
9708.00000 0.655841
9708.98047 0.654947
9709.96973 0.654045
9710.95020 0.653169
9711.92969 0.652287
9712.91016 0.651404
9713.90039 0.65053
9714.87988 0.649649
9715.86035 0.648769
9716.83984 0.647878
9717.83008 0.646996
9718.80957 0.646105
9719.79004 0.645218
9720.78027 0.644333
9721.75977 0.643441
9722.75000 0.642547
9723.73047 0.64166
9724.71973 0.640763
9725.70020 0.639872
9726.67969 0.638976
9727.66016 0.638082
9728.65039 0.637187
9729.62988 0.636285
9730.62012 0.635368
9731.59961 0.634435
9732.58984 0.633493
9733.57031 0.632558
9734.54980 0.631623
9735.54004 0.630679
9736.53027 0.629742
9737.50977 0.628802
9738.50000 0.627855
9739.48047 0.626917
9740.46973 0.625953
9741.45020 0.62496
9742.42969 0.623965
9743.41992 0.622969
9744.41016 0.621975
9745.38965 0.620977
9746.37988 0.619976
9747.37012 0.618976
9748.34961 0.617976
9749.33984 0.61697
9750.33008 0.615968
9751.32031 0.61495
9752.29980 0.613934
9753.29004 0.612919
9754.26953 0.611901
9755.25977 0.610884
9756.24023 0.609869
9757.23047 0.608841
9758.21973 0.607826
9759.20020 0.606807
9760.20020 0.60578
9761.17969 0.604767
9762.16992 0.603741
9763.16016 0.602722
9764.15039 0.601705
9765.13965 0.600675
9766.12012 0.599664
9767.09961 0.598643
9768.09961 0.597616
9769.08008 0.59659
9770.07031 0.595567
9771.05957 0.594545
9772.04980 0.59352
9773.04004 0.592506
9774.03027 0.591474
9775.01953 0.590454
9776.00977 0.58942
9777.00000 0.588395
9777.99023 0.587373
9778.98047 0.58634
9779.96973 0.585315
9780.95020 0.584354
9781.94043 0.583387
9782.92969 0.582417
9783.91992 0.581453
9784.91016 0.580478
9785.90039 0.579519
9786.90039 0.57854
9787.87988 0.577568
9788.87012 0.576598
9789.87012 0.575618
9790.84961 0.574648
9791.83984 0.573672
9792.83008 0.572689
9793.82031 0.57171
9794.80957 0.570731
9795.80957 0.569744
9796.79980 0.568762
9797.79004 0.56777
9798.78027 0.566789
9799.76953 0.5658
9800.76953 0.564978
9801.75977 0.564215
9802.75000 0.563447
9803.74023 0.562677
9804.73047 0.561905
9805.71973 0.561134
9806.70996 0.560364
9807.70020 0.559593
9808.70020 0.558815
9809.69043 0.558042
9810.67969 0.557281
9811.67969 0.556523
9812.66992 0.555772
9813.66016 0.555016
9814.66016 0.554252
9815.65039 0.553495
9816.63965 0.552735
9817.62988 0.551978
9818.62012 0.551221
9819.62012 0.550453
9820.61035 0.549599
9821.59961 0.548687
9822.59961 0.547769
9823.59961 0.546857
9824.58984 0.545944
9825.58984 0.545023
9826.58008 0.544108
9827.57031 0.543198
9828.57031 0.542279
9829.55957 0.541361
9830.55957 0.540433
9831.54980 0.539518
9832.54004 0.538594
9833.54004 0.537661
9834.53027 0.536737
9835.53027 0.535813
9836.51953 0.534881
9837.51953 0.533953
9838.50977 0.533028
9839.50977 0.532095
9840.50977 0.531173
9841.50977 0.530252
9842.50000 0.529332
9843.49023 0.52841
9844.49023 0.527488
9845.48047 0.526566
9846.48047 0.525646
9847.48047 0.524719
9848.46973 0.523797
9849.46973 0.522879
9850.46973 0.521952
9851.45996 0.521034
9852.45996 0.520109
9853.45996 0.519186
9854.45020 0.518266
9855.45020 0.517341
9856.45020 0.51642
9857.45020 0.515496
9858.44043 0.514578
9859.44043 0.513658
9860.42969 0.512783
9861.42969 0.511965
9862.42969 0.511153
9863.42969 0.510337
9864.42969 0.509525
9865.42969 0.508711
9866.42969 0.50789
9867.41992 0.507073
9868.41992 0.506259
9869.41992 0.505438
9870.41992 0.504628
9871.41016 0.503827
9872.41992 0.503015
9873.41016 0.502209
9874.41992 0.501402
9875.41016 0.500592
9876.41016 0.499782
9877.41016 0.498971
9878.41016 0.498161
9879.41016 0.49735
9880.41016 0.49653
9881.41016 0.495696
9882.41016 0.49486
9883.41016 0.494021
9884.41016 0.493186
9885.41016 0.492345
9886.41016 0.491507
9887.41016 0.49067
9888.41016 0.489829
9889.41016 0.488989
9890.41016 0.488153
9891.41016 0.487324
9892.41016 0.486499
9893.41016 0.485666
9894.41992 0.484829
9895.41992 0.483996
9896.41992 0.483158
9897.41992 0.482325
9898.41992 0.481498
9899.41992 0.480662
9900.41992 0.479793
9901.41992 0.478872
9902.42969 0.477942
9903.42969 0.477017
9904.42969 0.476092
9905.42969 0.475165
9906.42969 0.474243
9907.44043 0.473314
9908.44043 0.47239
9909.44043 0.471468
9910.45020 0.470533
9911.45020 0.469594
9912.44043 0.468662
9913.45020 0.467718
9914.45020 0.466783
9915.45020 0.465846
9916.45996 0.464905
9917.45996 0.463969
9918.46973 0.463024
9919.46973 0.462081
9920.48047 0.461142
9921.48047 0.460204
9922.48047 0.459271
9923.49023 0.45834
9924.49023 0.457405
9925.49023 0.456473
9926.49023 0.45554
9927.50000 0.454601
9928.50000 0.453665
9929.50977 0.452723
9930.51953 0.451784
9931.51953 0.45084
9932.53027 0.449891
9933.53027 0.448949
9934.53027 0.448006
9935.54004 0.447058
9936.54980 0.446115
9937.54980 0.445173
9938.55957 0.444217
9939.55957 0.443281
9940.57031 0.442404
9941.57031 0.441588
9942.58008 0.44077
9943.58984 0.439949
9944.58984 0.439134
9945.59961 0.438315
9946.61035 0.437494
9947.61035 0.436675
9948.62012 0.435856
9949.62988 0.435032
9950.62988 0.434208
9951.63965 0.43337
9952.63965 0.432542
9953.65039 0.431713
9954.66016 0.430874
9955.66016 0.430041
9956.66992 0.429205
9957.67969 0.428361
9958.69043 0.427528
9959.69043 0.426687
9960.70020 0.425839
9961.70996 0.425
9962.71973 0.42416
9963.71973 0.423319
9964.73047 0.422477
9965.74023 0.42163
9966.75000 0.420783
9967.75977 0.41994
9968.76953 0.419088
9969.76953 0.418241
9970.78027 0.417388
9971.79980 0.416528
9972.79980 0.415673
9973.80957 0.414816
9974.82031 0.413954
9975.83008 0.413095
9976.83984 0.41223
9977.84961 0.411374
9978.84961 0.410513
9979.87012 0.409647
9980.87988 0.408673
9981.87988 0.407681
9982.90039 0.406684
9983.91016 0.405692
9984.91016 0.4047
9985.92969 0.403701
9986.94043 0.402708
9987.95020 0.401709
9988.95996 0.400716
9989.96973 0.399722
9990.98047 0.398729
9991.99023 0.397734
9993.00000 0.396741
9994.00977 0.39574
9995.01953 0.394744
9996.03027 0.39375
9997.04980 0.392749
9998.05957 0.391753
9999.07031 0.390751
10000.08008 0.389777
10001.08984 0.389014
10002.11035 0.388241
10003.12012 0.387476
10004.12988 0.386713
10005.13965 0.385948
10006.15039 0.385184
10007.16016 0.384419
10008.17969 0.383646
10009.19043 0.382882
10010.20996 0.382119
10011.21973 0.381361
10012.23047 0.380603
10013.24023 0.379844
10014.25000 0.379085
10015.25977 0.378326
10016.29004 0.37756
10017.29980 0.376802
10018.30957 0.376043
10019.32031 0.375284
10020.33008 0.374554
10021.36035 0.373875
10022.37012 0.373203
10023.37988 0.372531
10024.38965 0.371858
10025.41016 0.371185
10026.41992 0.370511
10027.42969 0.369838
10028.44043 0.369163
10029.45996 0.368488
10030.48047 0.367803
10031.50000 0.36712
10032.50977 0.366436
10033.51953 0.365753
10034.54004 0.365069
10035.55957 0.364376
10036.57031 0.363691
10037.58008 0.363013
10038.59961 0.362321
10039.62012 0.361635
10040.62988 0.360949
10041.63965 0.360263
10042.66016 0.359578
10043.67969 0.358884
10044.70020 0.358198
10045.70996 0.35751
10046.73047 0.356822
10047.74023 0.356134
10048.75977 0.355446
10049.78027 0.35475
10050.79980 0.354062
10051.79980 0.353381
10052.83008 0.352685
10053.84961 0.351996
10054.86035 0.351306
10055.87988 0.350616
10056.88965 0.349926
10057.91992 0.349227
10058.94043 0.348537
10059.95020 0.347845
10060.96973 0.347092
10061.98047 0.346336
10063.00000 0.345581
10064.03027 0.344815
10065.03027 0.344067
10066.05957 0.343303
10067.08008 0.342546
10068.09961 0.34179
10069.11035 0.341033
10070.12988 0.340276
10071.15039 0.339521
10072.17969 0.338756
10073.19043 0.338001
10074.20996 0.337245
10075.23047 0.336489
10076.25000 0.335733
10077.26953 0.334968
10078.29004 0.334212
10079.29980 0.333464
10080.33008 0.3327
10081.34961 0.331944
10082.37012 0.331189
10083.37988 0.330433
10084.40039 0.329677
10085.41992 0.328922
10086.45020 0.328158
10087.46973 0.327401
10088.49023 0.326646
10089.50977 0.325889
10090.53027 0.32513
10091.54980 0.324367
10092.57031 0.323603
10093.58984 0.32284
10094.62012 0.322068
10095.63965 0.321304
10096.66016 0.320541
10097.67969 0.319777
10098.70020 0.319014
10099.73047 0.318241
10100.75000 0.317535
10101.76953 0.316849
10102.79004 0.316163
10103.80957 0.315476
10104.83008 0.314788
10105.84961 0.314101
10106.87012 0.313413
10107.88965 0.312724
10108.91992 0.312028
10109.95020 0.311339
10110.96973 0.31065
10111.99023 0.30996
10113.00977 0.309269
10114.04004 0.308571
10115.05957 0.30788
10116.08984 0.307188
10117.11035 0.306497
10118.12988 0.305804
10119.15039 0.305111
10120.16992 0.304417
10121.20020 0.303718
10122.23047 0.303011
10123.25000 0.302312
10124.28027 0.301612
10125.29980 0.300911
10126.32031 0.30021
10127.33984 0.299508
10128.37988 0.298799
10129.40039 0.298097
10130.41992 0.297394
10131.45020 0.29669
10132.46973 0.295986
10133.49023 0.295281
10134.51953 0.294576
10135.54004 0.293871
10136.58008 0.293158
10137.59961 0.292452
10138.62012 0.291745
10139.65039 0.291037
10140.66992 0.290279
10141.70020 0.289495
10142.73047 0.288703
10143.75977 0.287919
10144.78027 0.287135
10145.80957 0.286351
10146.83008 0.285567
10147.86035 0.284782
10148.87988 0.283997
10149.91016 0.283213
10150.94043 0.282417
10151.96973 0.281628
10153.00000 0.280839
10154.01953 0.280051
10155.04980 0.279262
10156.07031 0.278474
10157.11035 0.277676
10158.13965 0.276888
10159.16016 0.276099
10160.19043 0.275308
10161.20996 0.274509
10162.24023 0.27371
10163.26953 0.272911
10164.29004 0.272112
10165.33008 0.271305
10166.36035 0.270507
10167.38965 0.269708
10168.41016 0.268909
10169.44043 0.26811
10170.48047 0.267309
10171.50977 0.266523
10172.53027 0.265736
10173.55957 0.26495
10174.58984 0.264163
10175.62012 0.263377
10176.63965 0.26259
10177.66992 0.261803
10178.70020 0.261017
10179.74023 0.260221
10180.76953 0.259477
10181.79980 0.258746
10182.83008 0.258016
10183.84961 0.257284
10184.88965 0.256545
10185.91992 0.255813
10186.95020 0.255081
10187.98047 0.254347
10189.00977 0.253614
10190.04004 0.252881
10191.07031 0.252133
10192.09961 0.251386
10193.13965 0.25063
10194.16992 0.249882
10195.20020 0.249133
10196.23047 0.248384
10197.25977 0.247636
10198.29004 0.246887
10199.33008 0.246129
10200.36035 0.245471
10201.38965 0.244983
10202.41992 0.244496
10203.45020 0.244008
10204.48047 0.24352
10205.50977 0.243032
10206.54004 0.242544
10207.58984 0.24205
10208.62012 0.241561
10209.65039 0.241072
10210.67969 0.240588
10211.70996 0.240105
10212.74023 0.239622
10213.79004 0.239134
10214.82031 0.238651
10215.84961 0.238167
10216.87988 0.237683
10217.91016 0.2372
10218.95020 0.236715
10219.98047 0.236231
10221.00977 0.235727
10222.04980 0.235218
10223.08984 0.234714
10224.12012 0.23421
10225.15039 0.233706
10226.19043 0.233202
10227.23047 0.232692
10228.25977 0.232187
10229.29980 0.231683
10230.33008 0.231175
10231.36035 0.23066
10232.40039 0.230146
10233.42969 0.229632
10234.45996 0.229117
10235.50000 0.228603
10236.54004 0.228082
10237.58008 0.227567
10238.61035 0.227052
10239.63965 0.226537
10240.67969 0.226029
10241.73047 0.225521
10242.75977 0.225017
10243.79004 0.224514
10244.83008 0.224011
10245.86035 0.223506
10246.90039 0.223002
10247.92969 0.222498
10248.96973 0.221993
10250.01953 0.221484
10251.04980 0.22098
10252.08984 0.220476
10253.12012 0.219972
10254.16016 0.219468
10255.19043 0.218963
10256.24023 0.218453
10257.26953 0.217954
10258.29980 0.217448
10259.34961 0.216938
10260.38965 0.216433
10261.41992 0.215928
10262.45996 0.215423
10263.50000 0.214917
10264.54004 0.214407
10265.58008 0.213901
10266.62012 0.213395
10267.66016 0.212888
10268.69043 0.212382
10269.73047 0.211876
10270.78027 0.211364
10271.79980 0.210864
10272.84961 0.210353
10273.88965 0.209848
10274.92969 0.209342
10275.96973 0.208836
10277.00000 0.208329
10278.04004 0.207823
10279.08984 0.207311
10280.12988 0.206804
10281.16992 0.206295
10282.20996 0.205787
10283.25000 0.205278
10284.29980 0.204764
10285.32031 0.204261
10286.36035 0.203751
10287.41016 0.203236
10288.45020 0.202727
10289.49023 0.202217
10290.53027 0.201705
10291.57031 0.201194
10292.61035 0.200682
10293.66016 0.200165
10294.70020 0.199653
10295.74023 0.19914
10296.78027 0.198628
10297.82031 0.198116
10298.86035 0.197602
10299.90039 0.19709
10300.94043 0.196573
10302.00000 0.19605
10303.04004 0.195532
10304.08008 0.195015
10305.12012 0.194497
10306.16016 0.193979
10307.20996 0.193454
10308.25000 0.192936
10309.29004 0.192418
10310.33008 0.191897
10311.37988 0.191373
10312.41992 0.190849
10313.45996 0.190324
10314.50000 0.1898
10315.54004 0.189275
10316.59961 0.188745
10317.63965 0.18822
10318.67969 0.187694
10319.71973 0.187169
10320.76953 0.186648
10321.82031 0.186123
10322.86035 0.185603
10323.91016 0.185083
10324.95020 0.184563
10325.99023 0.184042
10327.03027 0.183521
10328.08008 0.183001
10329.12012 0.182479
10330.16016 0.181958
10331.21973 0.18143
10332.25977 0.180907
10333.30957 0.180384
10334.34961 0.179861
10335.38965 0.179338
10336.45020 0.178809
10337.49023 0.178284
10338.54004 0.177761
10339.58008 0.177237
10340.62988 0.176716
10341.66992 0.176195
10342.71973 0.175674
10343.75977 0.175153
10344.82031 0.174627
10345.86035 0.174106
10346.91016 0.173585
10347.95020 0.173063
10349.00000 0.17254
10350.04004 0.172019
10351.09961 0.171485
10352.15039 0.170956
10353.17969 0.170432
10354.24023 0.169898
10355.28027 0.169369
10356.33008 0.16884
10357.37988 0.16831
10358.41992 0.167781
10359.48047 0.167245
10360.53027 0.166718
10361.57031 0.166192
10362.62012 0.165667
10363.66992 0.165141
10364.70996 0.164615
10365.76953 0.164084
10366.82031 0.163558
10367.87012 0.163031
10368.91016 0.162504
10369.95996 0.161978
10371.00977 0.161449
10372.05957 0.160921
10373.09961 0.160392
10374.16016 0.159857
10375.20996 0.159328
10376.25977 0.158798
10377.30957 0.158269
10378.36035 0.15774
10379.41992 0.157204
10380.45996 0.156668
10381.50000 0.15613
10382.55957 0.15558
10383.61035 0.155036
10384.66016 0.154491
10385.70996 0.153947
10386.75977 0.153403
10387.80957 0.152857
10388.87012 0.152308
10389.91992 0.151764
10390.96973 0.15122
10392.01953 0.150677
10393.07031 0.150134
10394.12988 0.149585
10395.17969 0.149042
10396.21973 0.148504
10397.28027 0.147954
10398.33008 0.147411
10399.37988 0.146867
10400.42969 0.146402
10401.48047 0.146049
10402.54004 0.145693
10403.58984 0.145341
10404.63965 0.144988
10405.69043 0.144636
10406.75000 0.144283
10407.79980 0.14393
10408.84961 0.143578
10409.90039 0.143225
10410.95020 0.142869
10412.00977 0.142509
10413.07031 0.142153
10414.12012 0.141797
10415.16992 0.14144
10416.21973 0.141084
10417.29004 0.140723
10418.33984 0.140367
10419.38965 0.140011
10420.44043 0.139665
10421.50000 0.139334
10422.54980 0.139003
10423.59961 0.138671
10424.65039 0.138339
10425.71973 0.138004
10426.76953 0.137672
10427.82031 0.13734
10428.87988 0.137008
10429.92969 0.136676
10430.99023 0.136344
10432.04980 0.136008
10433.09961 0.135675
10434.16016 0.135343
10435.20996 0.13501
10436.26953 0.134677
10437.32031 0.134345
10438.37988 0.134011
10439.42969 0.133678
10440.50000 0.133341
10441.54980 0.133006
10442.59961 0.132671
10443.66016 0.132336
10444.70996 0.132001
10445.76953 0.131666
10446.83984 0.131328
10447.88965 0.130991
10448.95020 0.130656
10450.00000 0.13032
10451.05957 0.129981
10452.11035 0.129642
10453.16992 0.129303
10454.23047 0.128964
10455.29004 0.128621
10456.34961 0.128282
10457.41016 0.127942
10458.45996 0.127602
10459.51953 0.127262
10460.58984 0.126904
10461.63965 0.12654
10462.70020 0.126175
10463.75977 0.12581
10464.80957 0.125445
10465.87012 0.12508
10466.92969 0.124715
10467.99023 0.124351
10469.04004 0.123986
10470.11035 0.123617
10471.16992 0.123252
10472.23047 0.122887
10473.29004 0.122522
10474.33984 0.122157
10475.41016 0.121788
10476.46973 0.121423
10477.53027 0.121059
10478.58984 0.120694
10479.65039 0.120328
10480.70996 0.119963
10481.75977 0.119598
10482.82031 0.119232
10483.88965 0.118863
10484.95020 0.118498
10486.00977 0.118133
10487.07031 0.117767
10488.12988 0.117403
10489.19043 0.117037
10490.25977 0.116669
10491.32031 0.116302
10492.37988 0.115937
10493.44043 0.115571
10494.50000 0.115205
10495.55957 0.11484
10496.62012 0.114474
10497.67969 0.114109
10498.75000 0.113739
10499.80957 0.113372
10500.87012 0.113019
10501.92969 0.112669
10503.00000 0.112318
10504.05957 0.111968
10505.12988 0.111613
10506.19043 0.111261
10507.25000 0.11091
10508.30957 0.110559
10509.37988 0.110208
10510.44043 0.109855
10511.50000 0.109501
10512.55957 0.109146
10513.62988 0.108788
10514.70020 0.108433
10515.75977 0.108078
10516.82031 0.107724
10517.87988 0.107368
10518.95020 0.107013
10520.01953 0.106655
10521.08008 0.106302
10522.13965 0.105949
10523.20996 0.105596
10524.26953 0.105243
10525.33008 0.10489
10526.40039 0.104537
10527.45996 0.104184
10528.54004 0.103827
10529.59961 0.103473
10530.66016 0.103119
10531.73047 0.102763
10532.79004 0.102407
10533.87012 0.102049
10534.92969 0.101693
10535.99023 0.101337
10537.05957 0.100981
10538.12012 0.100625
10539.19043 0.100269
10540.25000 0.0999133
10541.32031 0.0995566
10542.37988 0.0991997
10543.45996 0.0988396
10544.51953 0.0984828
10545.58984 0.0981263
10546.65039 0.0977695
10547.71973 0.0974123
10548.79980 0.0970522
10549.86035 0.0966944
10550.92969 0.0963373
10551.99023 0.0959802
10553.05957 0.0956232
10554.12012 0.0952664
10555.19043 0.0949098
10556.25977 0.0945528
10557.33984 0.0941912
10558.40039 0.0938339
10559.46973 0.0934765
10560.54004 0.0931197
10561.59961 0.0927636
10562.66992 0.0924076
10563.75000 0.092047
10564.80957 0.0916913
10565.87012 0.0913389
10566.95020 0.0909782
10568.01953 0.0906217
10569.08008 0.090265
10570.15039 0.0899084
10571.21973 0.0895516
10572.29980 0.0891905
10573.37012 0.0888325
10574.44043 0.0884752
10575.50000 0.0881176
10576.57031 0.0877595
10577.63965 0.0874018
10578.71973 0.0870403
10579.79004 0.0866825
10580.86035 0.0863231
10581.92969 0.0859626
10583.00000 0.0856036
10584.05957 0.0852423
10585.12988 0.0848824
10586.20020 0.0845221
10587.28027 0.0841583
10588.34961 0.0837986
10589.41992 0.0834385
10590.49023 0.0830782
10591.55957 0.0827191
10592.63965 0.0823561
10593.70020 0.0820007
10594.76953 0.0816412
10595.84961 0.081278
10596.91992 0.0809189
10598.00000 0.0805594
10599.07031 0.0802001
10600.13965 0.0798568
10601.20996 0.0796289
10602.29004 0.0793991
10603.36035 0.0791716
10604.42969 0.078944
10605.50000 0.0787164
10606.58008 0.0784885
10607.66016 0.0782584
10608.71973 0.0780336
10609.79004 0.0778062
10610.87012 0.0775757
10611.94043 0.0773486
10613.01953 0.077121
10614.08984 0.0768933
10615.16016 0.0766658
10616.25000 0.0764351
10617.32031 0.0762078
10618.38965 0.0759804
10619.45996 0.0757524
10620.54004 0.0755248
10621.61035 0.0752968
10622.67969 0.0750684
10623.75000 0.0748404
10624.83008 0.0746119
10625.91016 0.0743815
10626.99023 0.0741536
10628.05957 0.0739249
10629.12988 0.0736969
10630.20996 0.0734677
10631.29004 0.0732359
10632.37012 0.0730061
10633.44043 0.0727761
10634.50977 0.0725462
10635.58984 0.0723158
10636.66016 0.0720862
10637.74023 0.0718563
10638.80957 0.0716261
10639.90039 0.0713934
10640.96973 0.0711654
10642.04980 0.0709375
10643.12012 0.0707084
10644.20020 0.0704804
10645.26953 0.0702518
10646.36035 0.0700212
10647.44043 0.0697923
10648.50977 0.0695638
10649.58984 0.0693355
10650.66016 0.0691064
10651.74023 0.0688765
10652.82031 0.0686466
10653.88965 0.0684174
10654.98047 0.0681849
10656.05957 0.0679545
10657.12988 0.0677251
10658.20996 0.0674948
10659.29004 0.0672651
10660.36035 0.0670354
10661.45020 0.066804
10662.53027 0.0665748
10663.59961 0.0663453
10664.67969 0.0661161
10665.75977 0.065887
10666.83984 0.0656573
10667.91016 0.0654278
10668.99023 0.0651977
10670.08008 0.064966
10671.16016 0.0647351
10672.24023 0.0645048
10673.32031 0.0642733
10674.38965 0.0640425
10675.48047 0.0638092
10676.55957 0.0635785
10677.63965 0.0633476
10678.71973 0.0631163
10679.79980 0.0628851
10680.87988 0.0626541
10681.95996 0.0624241
10683.03027 0.0621924
10684.11035 0.0619624
10685.20996 0.0617281
10686.28027 0.0614974
10687.36035 0.0612664
10688.44043 0.0610351
10689.51953 0.0608045
10690.61035 0.0605707
10691.69043 0.0603388
10692.76953 0.0601064
10693.84961 0.0598754
10694.92969 0.0596435
10696.01953 0.0594112
10697.09961 0.059179
10698.17969 0.0589475
10699.25977 0.0587157
10700.34961 0.058481
10701.42969 0.0582491
10702.50977 0.0580176
10703.58984 0.0577861
10704.66992 0.0575547
10705.76953 0.0573206
10706.84961 0.057089
10707.91992 0.0568594
10709.00977 0.0566249
10710.08984 0.0563936
10711.17969 0.0561602
10712.25977 0.0559281
10713.33984 0.0556955
10714.42969 0.0554603
10715.51953 0.0552277
10716.59961 0.0549947
10717.67969 0.0547623
10718.75977 0.0545293
10719.84961 0.0542964
10720.94043 0.0540612
10722.01953 0.053828
10723.09961 0.0535982
10724.19043 0.053363
10725.26953 0.0531303
10726.36035 0.0528972
10727.44043 0.0526647
10728.51953 0.0524312
10729.62012 0.0521954
10730.70020 0.0519633
10731.79004 0.0517319
10732.87012 0.0515
10733.95996 0.0512679
10735.04004 0.0510358
10736.13965 0.0508018
10737.20996 0.0505726
10738.30957 0.0503378
10739.38965 0.0501053
10740.48047 0.049873
10741.55957 0.0496384
10742.65039 0.0494043
10743.73047 0.0491703
10744.83008 0.0489334
10745.91016 0.0486992
10747.00000 0.0484652
10748.08008 0.0482309
10749.16992 0.0479965
10750.26953 0.0477598
10751.33984 0.0475283
10752.42969 0.0472948
10753.53027 0.0470585
10754.61035 0.0468246
10755.70020 0.0465902
10756.79004 0.0463564
10757.87012 0.0461223
10758.95996 0.0458883
10760.05957 0.0456516
10761.13965 0.0454176
10762.23047 0.0451834
10763.32031 0.0449494
10764.41016 0.0447153
10765.50000 0.0444784
10766.58008 0.0442468
10767.66992 0.0440124
10768.76953 0.0437755
10769.86035 0.0435411
10770.94043 0.0433057
10772.03027 0.0430701
10773.12012 0.0428346
10774.21973 0.0425964
10775.30957 0.0423608
10776.40039 0.042125
10777.49023 0.0418892
10778.57031 0.0416534
10779.66016 0.0414175
10780.75000 0.0411826
10781.83984 0.0409481
10782.92969 0.0407136
10784.03027 0.0404763
10785.12012 0.0402416
10786.20996 0.0400068
10787.29980 0.039772
10788.38965 0.0395373
10789.49023 0.0392996
10790.58008 0.0390644
10791.66992 0.0388289
10792.75977 0.0385934
10793.84961 0.0383576
10794.94043 0.0381221
10796.03027 0.0378863
10797.12012 0.0376507
10798.21973 0.0374123
10799.32031 0.0371765
10800.41016 0.0369534
10801.50000 0.0367526
10802.58984 0.0365519
10803.67969 0.0363509
10804.78027 0.0361479
10805.87988 0.0359468
10806.96973 0.0357459
10808.05957 0.0355448
10809.15039 0.0353438
10810.24023 0.035143
10811.33008 0.0349431
10812.42969 0.0347433
10813.53027 0.0345411
10814.62012 0.0343412
10815.70996 0.034141
10816.80957 0.033941
10817.90039 0.0337408
10818.99023 0.0335405
10820.09961 0.0333381
10821.19043 0.0331371
10822.28027 0.032936
10823.37988 0.032735
10824.46973 0.0325338
10825.55957 0.0323325
10826.66016 0.0321315
10827.75000 0.0319303
10828.86035 0.0317268
10829.95020 0.0315253
10831.04004 0.0313239
10832.13965 0.0311225
10833.23047 0.0309208
10834.33984 0.030717
10835.42969 0.0305155
10836.53027 0.0303139
10837.62012 0.0301122
10838.71973 0.0299105
10839.80957 0.0297087
10840.91016 0.0295072
10842.00000 0.0293058
10843.09961 0.0291041
10844.20996 0.0289005
10845.29980 0.0286988
10846.40039 0.0284971
10847.49023 0.0282954
10848.58984 0.0280937
10849.70020 0.0278897
10850.79004 0.027688
10851.88965 0.0274864
10852.98047 0.0272846
10854.08008 0.027083
10855.17969 0.0268811
10856.26953 0.0266792
10857.37012 0.0264773
10858.48047 0.0262732
10859.58008 0.0260713
10860.66992 0.0258688
10861.76953 0.0256663
10862.87012 0.0254635
10863.95996 0.025261
10865.07031 0.0250561
10866.16992 0.0248533
10867.26953 0.0246505
10868.37012 0.0244475
10869.45996 0.0242447
10870.55957 0.0240421
10871.66016 0.0238394
10872.75977 0.0236368
10873.87012 0.0234319
10874.96973 0.0232292
10876.07031 0.0230264
10877.16992 0.0228236
10878.25977 0.0226207
10879.36035 0.0224179
10880.46973 0.0222126
10881.57031 0.0220093
10882.66992 0.0218059
10883.76953 0.0216024
10884.87012 0.021399
10885.96973 0.0211954
10887.07031 0.0209919
10888.17969 0.0207862
10889.26953 0.0205848
10890.37988 0.0203792
10891.48047 0.0201764
10892.58008 0.0199733
10893.67969 0.0197702
10894.79004 0.0195651
10895.90039 0.0193619
10897.00000 0.0191588
10898.08008 0.0189577
10899.20020 0.0187523
10900.29980 0.0185487
10901.40039 0.0183448
10902.50000 0.0181406
10903.61035 0.0179344
10904.70020 0.0177324
10905.82031 0.0175261
10906.91992 0.0173219
10908.01953 0.0171177
10909.12988 0.0169111
10910.21973 0.0167091
10911.33984 0.0165028
10912.44043 0.0162986
10913.53027 0.0160968
10914.65039 0.0158904
10915.75000 0.0156861
10916.84961 0.0154826
10917.96973 0.0152768
10919.05957 0.0150755
10920.16992 0.0148696
10921.26953 0.0146654
10922.37988 0.014461
10923.48047 0.0142565
10924.59961 0.0140499
10925.70020 0.0138454
10926.79980 0.0136408
10927.90039 0.0134384
10929.00977 0.0132314
10930.12012 0.0130267
10931.21973 0.0128227
10932.32031 0.0126185
10933.44043 0.0124121
10934.53027 0.01221
10935.63965 0.0120057
10936.75000 0.0117991
10937.86035 0.0115944
10938.98047 0.0113877
10940.07031 0.0111851
10941.19043 0.0109779
10942.29004 0.0107731
10943.37988 0.0105701
10944.50000 0.0103628
10945.61035 0.0101576
10946.70996 0.00995213
10947.82031 0.00974683
10948.91992 0.00954146
10950.04004 0.0093337
10951.15039 0.00912818
10952.25977 0.0089226
10953.36035 0.00871696
12048.69629 0.0
