# %ECSV 0.9
# ---
# datatype:
# - {name: wavelength, unit: Angstrom, datatype: float32}
# - {name: response, datatype: float32}
# meta: !!omap
# - {band_name: F850LP_77}
# - {group_name: ACS_WFC}
wavelength response
7164.90869 0.0
7961.00977 0.00361435
7961.81006 0.0036888
7962.62012 0.00376322
7963.43018 0.003838
7964.22998 0.00391239
7965.02979 0.00398674
7965.83984 0.00406141
7966.64990 0.00413569
7967.45020 0.00420997
7968.25977 0.00428416
7969.06006 0.00435831
7969.87012 0.00443248
7970.68018 0.00450751
7971.49023 0.00458169
7972.29004 0.00465584
7973.10010 0.00472996
7973.89990 0.0048041
7974.70996 0.00487855
7975.52002 0.00495261
7976.31982 0.00502662
7977.12988 0.00510102
7977.93994 0.00517502
7978.75000 0.00524893
7979.54980 0.00532285
7980.35986 0.00539762
7981.16016 0.00547349
7981.97998 0.00555021
7982.77979 0.00562613
7983.58984 0.0057021
7984.39990 0.00577806
7985.20020 0.00585407
7986.02002 0.00593052
7986.81982 0.00600657
7987.62988 0.00608268
7988.43994 0.00615919
7989.25000 0.00623534
7990.06006 0.00631141
7990.85986 0.00638635
7991.66992 0.00646127
7992.47998 0.006537
7993.29004 0.00661194
7994.10010 0.00668682
7994.91016 0.00676173
7995.72021 0.00683666
7996.52002 0.00691155
7997.33984 0.00698688
7998.14014 0.00706176
7998.95020 0.00713668
7999.75977 0.00721197
8000.56982 0.00745916
8001.37988 0.00777759
8002.18994 0.00809579
8003.00000 0.00841397
8003.81006 0.00873536
8004.62012 0.0090529
8005.43018 0.00936869
8006.24023 0.0096879
8007.04980 0.010005
8007.85986 0.010322
8008.66992 0.0106403
8009.47998 0.0109569
8010.29004 0.0112235
8011.10010 0.0113973
8011.91016 0.0115711
8012.72021 0.0117448
8013.52979 0.0119184
8014.33984 0.012092
8015.16016 0.0122674
8015.95996 0.0124399
8016.77002 0.0126133
8017.58984 0.0127876
8018.39990 0.0129609
8019.20996 0.0131351
8020.02002 0.0133089
8020.83008 0.0135063
8021.64990 0.0137047
8022.45996 0.0139021
8023.27002 0.0140993
8024.08008 0.0142966
8024.89014 0.0144938
8025.70020 0.0146912
8026.52002 0.0148904
8027.31982 0.0150866
8028.14014 0.0152847
8028.95020 0.0154818
8029.75977 0.0156789
8030.58008 0.0159144
8031.39014 0.0161639
8032.20020 0.0164131
8033.02002 0.0166638
8033.83008 0.0169131
8034.64014 0.0171622
8035.45020 0.0174111
8036.25977 0.0176602
8037.08008 0.0179116
8037.89014 0.0181591
8038.70020 0.0184077
8039.52002 0.0186577
8040.33008 0.0189248
8041.14014 0.0192191
8041.95996 0.0195148
8042.77002 0.0198073
8043.58008 0.0201012
8044.39990 0.0203982
8045.20996 0.0206919
8046.02979 0.0209856
8046.83984 0.021279
8047.64990 0.0215724
8048.47021 0.0218689
8049.27979 0.0221605
8050.10010 0.0224556
8050.91016 0.0227667
8051.72998 0.0230763
8052.54004 0.0233857
8053.35986 0.023697
8054.16992 0.0240049
8054.99023 0.024318
8055.79980 0.0246276
8056.62012 0.0249373
8057.43018 0.025247
8058.24023 0.0255568
8059.06006 0.0258665
8059.87988 0.0261779
8060.68994 0.0265463
8061.50977 0.0269246
8062.31982 0.0273048
8063.14014 0.0276826
8063.95996 0.0280622
8064.77002 0.0284372
8065.58008 0.0288142
8066.41016 0.029195
8067.22021 0.0295711
8068.04004 0.029947
8068.85010 0.030323
8069.66992 0.0306983
8070.47998 0.0311014
8071.29980 0.0315265
8072.12012 0.0319494
8072.93994 0.0323744
8073.75000 0.0327972
8074.56982 0.03322
8075.39014 0.0336453
8076.20020 0.034066
8077.02002 0.0344888
8077.83984 0.0349165
8078.66016 0.0353396
8079.47021 0.0357626
8080.29004 0.0362647
8081.10010 0.0369112
8081.93018 0.0375613
8082.74023 0.0382078
8083.56006 0.0388541
8084.37988 0.039504
8085.18994 0.0401499
8086.00977 0.0407959
8086.83008 0.0414418
8087.64990 0.0420874
8088.45996 0.0427328
8089.29004 0.0433855
8090.10986 0.0440234
8090.91992 0.0446131
8091.74023 0.0452025
8092.56006 0.0457914
8093.37988 0.046383
8094.20020 0.0469714
8095.02002 0.047559
8095.83984 0.0481495
8096.64990 0.0487367
8097.47021 0.0493233
8098.29004 0.0499093
8099.10986 0.0504954
8099.93994 0.0510869
8100.75000 0.0518891
8101.56982 0.0527095
8102.39014 0.05353
8103.20996 0.0543505
8104.02979 0.0551714
8104.85010 0.0559962
8105.66992 0.0568171
8106.49023 0.0576379
8107.31006 0.0584631
8108.12988 0.0592844
8108.95020 0.0601053
8109.77002 0.0609265
8110.58984 0.0616574
8111.41992 0.0623612
8112.24023 0.0630566
8113.06006 0.0637519
8113.87988 0.064447
8114.68994 0.0651421
8115.52002 0.065837
8116.33984 0.0665354
8117.16016 0.0672296
8117.97998 0.0679238
8118.79980 0.0686217
8119.62012 0.0693156
8120.43994 0.0701788
8121.25977 0.0711863
8122.08008 0.072194
8122.91016 0.0732113
8123.72998 0.0742178
8124.54980 0.0752178
8125.37988 0.0762287
8126.20020 0.0772337
8127.02002 0.078238
8127.83984 0.079248
8128.66016 0.0802513
8129.49023 0.08126
8130.31006 0.0822164
8131.12988 0.0830962
8131.95020 0.0839757
8132.77002 0.0848551
8133.60010 0.0857336
8134.43018 0.0866216
8135.25000 0.0874998
8136.06982 0.0883726
8136.89014 0.0892549
8137.70996 0.0901322
8138.54004 0.0910135
8139.35986 0.0918901
8140.18994 0.0928419
8141.00977 0.0940604
8141.83008 0.0952722
8142.66016 0.0964825
8143.47998 0.0976922
8144.29980 0.098902
8145.12012 0.100111
8145.95996 0.101333
8146.77002 0.102534
8147.60010 0.103748
8148.43018 0.104955
8149.25000 0.106161
8150.08008 0.107381
8150.89990 0.108674
8151.72021 0.109967
8152.54980 0.111268
8153.37012 0.112561
8154.20020 0.113854
8155.02002 0.115147
8155.85010 0.11644
8156.68018 0.117746
8157.50000 0.119039
8158.31982 0.120324
8159.14990 0.121624
8159.97998 0.122916
8160.79980 0.124277
8161.62988 0.125646
8162.45020 0.127006
8163.27002 0.128359
8164.10986 0.129731
8164.93018 0.131088
8165.75977 0.132443
8166.58008 0.133796
8167.39990 0.135149
8168.22998 0.136508
8169.06006 0.137858
8169.89014 0.139206
8170.72021 0.140657
8171.54004 0.142117
8172.37012 0.143577
8173.20020 0.145045
8174.02002 0.146505
8174.85010 0.147972
8175.68018 0.149432
8176.50000 0.150892
8177.33008 0.152351
8178.14990 0.153811
8178.97998 0.155271
8179.81006 0.156738
8180.64014 0.158371
8181.47021 0.160054
8182.29980 0.161746
8183.12012 0.163429
8183.95020 0.165121
8184.77979 0.166795
8185.60010 0.168477
8186.43994 0.170178
8187.27002 0.17186
8188.08984 0.173543
8188.91992 0.175225
8189.75000 0.176907
8190.56982 0.178634
8191.41016 0.180388
8192.23047 0.182132
8193.07031 0.183883
8193.88965 0.185626
8194.71973 0.187365
8195.54980 0.189113
8196.37988 0.190844
8197.20020 0.192579
8198.04004 0.194336
8198.87012 0.196071
8199.70020 0.197805
8200.53027 0.199696
8201.34961 0.201677
8202.19043 0.203669
8203.01953 0.20565
8203.83984 0.207628
8204.67969 0.209617
8205.50977 0.211596
8206.33984 0.213574
8207.16992 0.215551
8207.99023 0.217527
8208.82031 0.219502
8209.66016 0.221497
8210.49023 0.223288
8211.32031 0.224955
8212.15039 0.226619
8212.98047 0.228284
8213.80957 0.229958
8214.63965 0.231621
8215.46973 0.233286
8216.30957 0.23496
8217.13965 0.236622
8217.96973 0.238286
8218.79980 0.239951
8219.62988 0.241614
8220.46973 0.243669
8221.29980 0.245999
8222.12988 0.248323
8222.95996 0.250644
8223.79004 0.252965
8224.62012 0.255284
8225.45020 0.25761
8226.29004 0.259922
8227.12012 0.262232
8227.95020 0.264553
8228.78027 0.266856
8229.61035 0.269157
8230.45020 0.271159
8231.28027 0.272908
8232.12012 0.274673
8232.95020 0.276421
8233.78027 0.278165
8234.61035 0.279911
8235.44043 0.281657
8236.28027 0.283402
8237.11035 0.285155
8237.94043 0.286899
8238.78027 0.288653
8239.61035 0.290396
8240.45020 0.292298
8241.28027 0.294331
8242.11035 0.296366
8242.94043 0.298397
8243.79004 0.30045
8244.62012 0.302481
8245.45020 0.30451
8246.28027 0.306539
8247.12012 0.308565
8247.95020 0.310601
8248.79004 0.312627
8249.62012 0.31465
8250.45996 0.317011
8251.29004 0.319624
8252.12988 0.322238
8252.95996 0.324853
8253.79004 0.327462
8254.62988 0.330074
8255.46973 0.332712
8256.30957 0.335321
8257.13965 0.33793
8257.96973 0.340537
8258.80957 0.343146
8259.65039 0.345763
8260.48047 0.34848
8261.30957 0.351274
8262.15039 0.354085
8262.99023 0.356875
8263.82031 0.359667
8264.66016 0.362456
8265.49023 0.365244
8266.33008 0.368031
8267.16992 0.370845
8268.00000 0.373615
8268.83984 0.37641
8269.67969 0.379193
8270.50977 0.381714
8271.34961 0.384088
8272.19043 0.386449
8273.01953 0.388796
8273.86035 0.391179
8274.70020 0.393537
8275.54004 0.395894
8276.37012 0.39825
8277.20996 0.400604
8278.04980 0.402986
8278.88965 0.405337
8279.71973 0.407678
8280.55957 0.410188
8281.40039 0.412753
8282.24023 0.415319
8283.08008 0.417897
8283.91016 0.420461
8284.75000 0.423009
8285.58984 0.425601
8286.42969 0.428161
8287.26953 0.43072
8288.09961 0.433278
8288.94043 0.435837
8289.79004 0.438419
8290.62012 0.441208
8291.45996 0.444098
8292.29980 0.446998
8293.13965 0.449882
8293.98047 0.452763
8294.82031 0.455655
8295.65039 0.458516
8296.50000 0.461418
8297.33008 0.464288
8298.16992 0.467156
8299.00977 0.470019
8299.84961 0.47288
8300.69043 0.475445
8301.54004 0.477971
8302.37012 0.480455
8303.20996 0.482952
8304.04980 0.485459
8304.88965 0.48795
8305.73047 0.490457
8306.57031 0.492947
8307.41016 0.495435
8308.25977 0.497937
8309.09961 0.500425
8309.92969 0.502907
8310.76953 0.504172
8311.61035 0.505331
8312.45020 0.506488
8313.29980 0.507654
8314.13965 0.50881
8314.98047 0.509972
8315.82031 0.511129
8316.66016 0.512284
8317.50977 0.513443
8318.34961 0.514595
8319.17969 0.515742
8320.03027 0.517015
8320.87012 0.520994
8321.70996 0.524966
8322.54980 0.528942
8323.40039 0.532915
8324.24023 0.53691
8325.08008 0.540884
8325.91992 0.544853
8326.76953 0.548845
8327.61035 0.552813
8328.45020 0.556783
8329.29980 0.560771
8330.13965 0.564482
8330.96973 0.566886
8331.83008 0.56933
8332.66992 0.571741
8333.50977 0.574152
8334.34961 0.576562
8335.19043 0.578973
8336.04004 0.581389
8336.87988 0.583795
8337.71973 0.586197
8338.57031 0.58861
8339.41016 0.59101
8340.25000 0.593474
8341.09961 0.596116
8341.94043 0.598728
8342.79004 0.60138
8343.62988 0.604003
8344.48047 0.606626
8345.32031 0.60925
8346.16016 0.611869
8347.00977 0.614489
8347.84961 0.617122
8348.70020 0.619742
8349.54004 0.622358
8350.38965 0.624466
8351.23047 0.625944
8352.08008 0.627425
8352.91992 0.6289
8353.75977 0.630364
8354.62012 0.631852
8355.45996 0.633324
8356.29980 0.634795
8357.15039 0.636266
8357.99023 0.637736
8358.83984 0.639206
8359.69043 0.640681
8360.53027 0.643516
8361.37988 0.647177
8362.21973 0.650819
8363.07031 0.65446
8363.91992 0.658118
8364.75977 0.661737
8365.59961 0.665371
8366.45996 0.669044
8367.29980 0.672652
8368.13965 0.676284
8368.99023 0.67993
8369.83984 0.683557
8370.69043 0.685324
8371.53027 0.686642
8372.37988 0.68796
8373.23047 0.689284
8374.08008 0.690599
8374.91992 0.691912
8375.76953 0.693226
8376.61035 0.694536
8377.45996 0.695847
8378.32031 0.697169
8379.16016 0.698468
8380.00977 0.699791
8380.84961 0.701964
8381.70020 0.704137
8382.54980 0.706322
8383.40039 0.708495
8384.25000 0.710667
8385.09961 0.712849
8385.94043 0.715019
8386.79004 0.71719
8387.63965 0.719359
8388.49023 0.721529
8389.33984 0.72372
8390.19043 0.725753
8391.03027 0.727362
8391.88965 0.728979
8392.73047 0.730587
8393.58008 0.732195
8394.42969 0.733811
8395.28027 0.735418
8396.12988 0.737025
8396.98047 0.73864
8397.83008 0.740248
8398.67969 0.741854
8399.53027 0.743461
8400.37988 0.745746
8401.23047 0.748909
8402.08008 0.752013
8402.92969 0.755137
8403.78027 0.758268
8404.62988 0.761378
8405.48047 0.764486
8406.33008 0.767607
8407.17969 0.770709
8408.03027 0.773822
8408.88965 0.776915
8409.73047 0.780003
8410.58008 0.781798
8411.42969 0.783003
8412.28027 0.784206
8413.13965 0.785417
8413.99023 0.786619
8414.83984 0.787821
8415.69043 0.789027
8416.54004 0.790225
8417.40039 0.79143
8418.25000 0.792626
8419.09961 0.79382
8419.95020 0.79502
8420.79980 0.794736
8421.65039 0.794364
8422.50000 0.793989
8423.34961 0.793616
8424.20996 0.793245
8425.05957 0.792869
8425.91016 0.792497
8426.75977 0.792125
8427.62012 0.791749
8428.46973 0.791375
8429.33008 0.790999
8430.17969 0.791511
8431.03027 0.795342
8431.88965 0.799188
8432.74023 0.803012
8433.58984 0.806828
8434.44043 0.810638
8435.29980 0.814449
8436.15039 0.818251
8437.00000 0.822072
8437.84961 0.825863
8438.70996 0.829677
8439.57031 0.833463
8440.41992 0.835784
8441.26953 0.836593
8442.12988 0.837398
8442.98047 0.838201
8443.83984 0.839008
8444.69043 0.839808
8445.54004 0.840608
8446.40039 0.841408
8447.25000 0.842209
8448.11035 0.84301
8448.95996 0.843809
8449.82031 0.844609
8450.66992 0.84503
8451.53027 0.845346
8452.37988 0.845661
8453.24023 0.845978
8454.08984 0.846294
8454.95020 0.846608
8455.80957 0.846924
8456.66016 0.847239
8457.50977 0.847551
8458.37012 0.847862
8459.21973 0.848173
8460.08008 0.848677
8460.94043 0.850954
8461.79004 0.853227
8462.65039 0.85551
8463.50977 0.857781
8464.36035 0.860052
8465.21973 0.862329
8466.07031 0.864581
8466.94043 0.866867
8467.79004 0.869126
8468.65039 0.871384
8469.50000 0.873639
8470.36035 0.875568
8471.20996 0.877045
8472.07031 0.878529
8472.92969 0.879999
8473.78027 0.881472
8474.65039 0.882954
8475.50000 0.884422
8476.36035 0.885898
8477.21973 0.887365
8478.07031 0.888824
8478.94043 0.890301
8479.79004 0.891765
8480.65039 0.893117
8481.50977 0.894451
8482.36035 0.895776
8483.21973 0.897098
8484.08008 0.898429
8484.94043 0.899753
8485.79980 0.901084
8486.66016 0.902406
8487.50977 0.903726
8488.37988 0.905056
8489.23047 0.90637
8490.08984 0.90762
8490.95020 0.908232
8491.80957 0.908838
8492.66992 0.909437
8493.53027 0.910043
8494.38965 0.910646
8495.25000 0.91125
8496.11035 0.911846
8496.96973 0.912445
8497.83008 0.913043
8498.69043 0.913636
8499.54980 0.914228
8500.41016 0.914974
8501.25977 0.915878
8502.12012 0.916783
8502.99023 0.917698
8503.83984 0.918599
8504.70996 0.919507
8505.57031 0.920409
8506.42969 0.921309
8507.29004 0.922212
8508.15039 0.923111
8509.00977 0.92401
8509.87012 0.924912
8510.73047 0.926248
8511.58984 0.92766
8512.45020 0.929072
8513.30957 0.930482
8514.17969 0.931906
8515.04004 0.933305
8515.90039 0.934715
8516.75977 0.936129
8517.62012 0.937535
8518.48047 0.938939
8519.34961 0.940349
8520.20996 0.94156
8521.07031 0.942176
8521.92969 0.942796
8522.79980 0.943409
8523.66016 0.944024
8524.51953 0.944636
8525.37988 0.945248
8526.25000 0.945866
8527.09961 0.946472
8527.96973 0.947081
8528.83008 0.947694
8529.69043 0.948303
8530.55957 0.948967
8531.41992 0.949669
8532.28027 0.950365
8533.15039 0.95106
8534.00977 0.951752
8534.87988 0.952443
8535.74023 0.953132
8536.59961 0.95382
8537.45996 0.954507
8538.33008 0.955197
8539.19043 0.955881
8540.04980 0.956552
8540.91992 0.957087
8541.78027 0.957614
8542.65039 0.958146
8543.50977 0.958675
8544.37988 0.959202
8545.25000 0.959731
8546.11035 0.960257
8546.96973 0.960782
8547.83984 0.961306
8548.70020 0.961831
8549.55957 0.962355
8550.42969 0.962633
8551.29980 0.962659
8552.16016 0.962683
8553.03027 0.962709
8553.88965 0.962735
8554.75977 0.962762
8555.62012 0.962786
8556.49023 0.962808
8557.36035 0.962832
8558.21973 0.962854
8559.08984 0.962876
8559.95020 0.962899
8560.82031 0.963732
8561.69043 0.964622
8562.54980 0.965503
8563.41992 0.966383
8564.28027 0.967269
8565.15039 0.968148
8566.00977 0.969025
8566.88965 0.969909
8567.75000 0.970785
8568.62012 0.97166
8569.49023 0.97254
8570.34961 0.973221
8571.21973 0.973623
8572.08008 0.974025
8572.95020 0.974427
8573.82031 0.974829
8574.69043 0.975225
8575.54980 0.975623
8576.41992 0.976023
8577.29004 0.976421
8578.16016 0.976817
8579.03027 0.977213
8579.90039 0.977609
8580.76953 0.977798
8581.62988 0.977958
8582.50000 0.978119
8583.37012 0.978278
8584.23047 0.978434
8585.09961 0.978594
8585.96973 0.97875
8586.83984 0.978907
8587.70996 0.979062
8588.58008 0.979217
8589.45020 0.979372
8590.30957 0.979541
8591.19043 0.979737
8592.05957 0.979929
8592.92969 0.980122
8593.79980 0.980314
8594.66016 0.980507
8595.53027 0.980695
8596.40039 0.980883
8597.26953 0.981073
8598.13965 0.981263
8599.00977 0.981451
8599.87988 0.981639
8600.75000 0.983079
8601.62012 0.984708
8602.50000 0.986345
8603.36035 0.987971
8604.23047 0.989598
8605.11035 0.991231
8605.98047 0.992854
8606.83984 0.994466
8607.71973 0.99609
8608.58008 0.997706
8609.45020 0.999321
8610.33008 1.0
8611.20020 0.999117
8612.07031 0.998226
8612.94043 0.997341
8613.80957 0.996458
8614.69043 0.99557
8615.54980 0.994691
8616.41992 0.993806
8617.29980 0.992912
8618.16992 0.992026
8619.04004 0.991148
8619.91992 0.990261
8620.79004 0.990692
8621.66016 0.991268
8622.53027 0.99184
8623.40039 0.992408
8624.28027 0.992979
8625.15039 0.993544
8626.01953 0.994111
8626.90039 0.994682
8627.75977 0.995243
8628.63965 0.995806
8629.51953 0.996372
8630.38965 0.995939
8631.25977 0.994251
8632.12988 0.992571
8633.00000 0.990892
8633.87988 0.989205
8634.75000 0.987528
8635.62988 0.985851
8636.50000 0.984167
8637.37988 0.982492
8638.25000 0.98082
8639.12012 0.979145
8639.99023 0.977475
8640.87988 0.978799
8641.75000 0.98013
8642.62012 0.981451
8643.50000 0.982787
8644.37012 0.984112
8645.24023 0.985435
8646.12012 0.986766
8646.99023 0.988088
8647.87012 0.989412
8648.74023 0.990736
8649.62012 0.992054
8650.50000 0.992449
8651.37012 0.992131
8652.24023 0.991811
8653.12012 0.99149
8653.99023 0.991168
8654.87012 0.990846
8655.75000 0.990524
8656.62012 0.990204
8657.50000 0.989883
8658.37012 0.989559
8659.25000 0.989235
8660.12988 0.989019
8661.00000 0.989409
8661.87988 0.989796
8662.75000 0.990184
8663.62988 0.990571
8664.50000 0.990958
8665.37988 0.991346
8666.25977 0.991731
8667.12988 0.992117
8668.00977 0.992503
8668.88965 0.992885
8669.76953 0.993271
8670.65039 0.993016
8671.51953 0.992533
8672.40039 0.992046
8673.28027 0.991563
8674.16016 0.991081
8675.03027 0.9906
8675.91016 0.990114
8676.78027 0.989631
8677.66992 0.989146
8678.54004 0.988665
8679.41992 0.98818
8680.29980 0.987965
8681.17969 0.98827
8682.05957 0.988576
8682.94043 0.988879
8683.80957 0.989182
8684.69043 0.989487
8685.57031 0.989788
8686.45020 0.990089
8687.33008 0.99039
8688.20020 0.99069
8689.08984 0.990987
8689.96973 0.991287
8690.83984 0.991024
8691.73047 0.990732
8692.59961 0.990444
8693.48047 0.990157
8694.36035 0.989867
8695.24023 0.98958
8696.12012 0.989291
8697.00000 0.988994
8697.87988 0.988708
8698.75977 0.988418
8699.63965 0.98813
8700.51953 0.988126
8701.40039 0.988318
8702.28027 0.988509
8703.16016 0.988701
8704.04980 0.98889
8704.91992 0.98908
8705.79980 0.989267
8706.69043 0.989456
8707.57031 0.989642
8708.45020 0.989827
8709.33008 0.990011
8710.20996 0.99002
8711.08984 0.989476
8711.96973 0.988931
8712.84961 0.988384
8713.74023 0.987837
8714.62012 0.987293
8715.50000 0.986749
8716.37988 0.986199
8717.25977 0.985653
8718.15039 0.985104
8719.03027 0.984562
8719.91016 0.984012
8720.79004 0.983783
8721.67969 0.983592
8722.55957 0.9834
8723.44043 0.983207
8724.32031 0.983014
8725.20020 0.982822
8726.08984 0.982626
8726.96973 0.982431
8727.84961 0.982237
8728.74023 0.982041
8729.62012 0.981848
8730.50000 0.981524
8731.38965 0.981108
8732.25977 0.980697
8733.16016 0.980276
8734.04004 0.979859
8734.91992 0.979443
8735.79980 0.979026
8736.67969 0.97861
8737.57031 0.978192
8738.45020 0.977776
8739.33984 0.977359
8740.23047 0.977181
8741.11035 0.977703
8741.99023 0.978223
8742.87988 0.97875
8743.75977 0.979272
8744.63965 0.979789
8745.53027 0.980314
8746.41992 0.980832
8747.29980 0.981348
8748.17969 0.981863
8749.07031 0.982378
8749.95996 0.982898
8750.83984 0.982102
8751.71973 0.981239
8752.61035 0.980368
8753.50000 0.979504
8754.37988 0.97864
8755.26953 0.977772
8756.15039 0.976912
8757.03027 0.976053
8757.92969 0.975178
8758.80957 0.974319
8759.70020 0.973451
8760.58008 0.973256
8761.46973 0.973404
8762.36035 0.973552
8763.24023 0.9737
8764.12988 0.973844
8765.01953 0.973986
8765.90039 0.97413
8766.79004 0.974276
8767.66992 0.974422
8768.55957 0.974563
8769.45996 0.974705
8770.33984 0.974558
8771.21973 0.973951
8772.11035 0.973333
8773.00000 0.972722
8773.88965 0.972111
8774.78027 0.971497
8775.66016 0.970886
8776.54980 0.970274
8777.44043 0.969659
8778.33008 0.969047
8779.21973 0.968433
8780.09961 0.967883
8780.99023 0.967774
8781.88965 0.967662
8782.76953 0.967552
8783.66016 0.967437
8784.54980 0.967323
8785.42969 0.967211
8786.32031 0.967098
8787.21973 0.966986
8788.09961 0.966873
8789.00000 0.966756
8789.87988 0.966644
8790.76953 0.966397
8791.66016 0.966133
8792.54980 0.965869
8793.42969 0.965604
8794.33008 0.965337
8795.21973 0.965075
8796.09961 0.96481
8797.00000 0.964542
8797.88965 0.964274
8798.78027 0.964007
8799.66992 0.963741
8800.55957 0.963281
8801.45020 0.962704
8802.33984 0.962129
8803.23047 0.961552
8804.12012 0.960977
8805.00977 0.960398
8805.90039 0.959824
8806.79004 0.959245
8807.67969 0.958669
8808.58008 0.958088
8809.46973 0.957513
8810.36035 0.95711
8811.25000 0.95696
8812.13965 0.956812
8813.03027 0.956659
8813.92969 0.95651
8814.82031 0.95636
8815.70996 0.956208
8816.59961 0.956057
8817.49023 0.955906
8818.38965 0.955753
8819.26953 0.955601
8820.16992 0.955244
8821.05957 0.953993
8821.95020 0.952752
8822.83984 0.951509
8823.74023 0.950262
8824.62988 0.949023
8825.51953 0.947783
8826.41992 0.946537
8827.30957 0.9453
8828.20020 0.944063
8829.08984 0.942827
8829.99023 0.94159
8830.87988 0.941288
8831.76953 0.941001
8832.66992 0.940712
8833.55957 0.940424
8834.45996 0.940136
8835.34961 0.939846
8836.25000 0.939558
8837.13965 0.939269
8838.04004 0.938977
8838.92969 0.938685
8839.82031 0.938397
8840.71973 0.93872
8841.61035 0.939189
8842.50000 0.939657
8843.40039 0.940129
8844.29004 0.940597
8845.19043 0.941063
8846.08008 0.941529
8846.98047 0.94199
8847.87988 0.942457
8848.76953 0.94292
8849.66992 0.943381
8850.55957 0.94326
8851.45996 0.942796
8852.34961 0.942331
8853.25000 0.941866
8854.13965 0.941401
8855.03027 0.940937
8855.92969 0.94047
8856.83008 0.940004
8857.73047 0.939535
8858.62012 0.939069
8859.51953 0.938601
8860.41992 0.93816
8861.30957 0.937757
8862.20020 0.937356
8863.11035 0.936946
8864.00000 0.936541
8864.90039 0.936135
8865.79980 0.935734
8866.69043 0.935329
8867.58984 0.934918
8868.49023 0.934511
8869.37988 0.934104
8870.28027 0.933689
8871.17969 0.933267
8872.08008 0.932842
8872.98047 0.932416
8873.87012 0.931989
8874.75977 0.931567
8875.66992 0.931138
8876.57031 0.930713
8877.45996 0.930288
8878.36035 0.929862
8879.25977 0.929438
8880.16016 0.929019
8881.05957 0.928629
8881.95020 0.928241
8882.84961 0.92785
8883.75000 0.927463
8884.65039 0.927072
8885.54980 0.926679
8886.44043 0.926292
8887.34961 0.925899
8888.25000 0.925511
8889.15039 0.925122
8890.04980 0.924733
8890.94043 0.924403
8891.83984 0.924074
8892.75000 0.923743
8893.65039 0.923414
8894.54004 0.923084
8895.45020 0.922751
8896.33984 0.922421
8897.25000 0.922087
8898.15039 0.921755
8899.04004 0.921424
8899.95020 0.921086
8900.84961 0.920568
8901.74023 0.920047
8902.65039 0.919515
8903.54980 0.918984
8904.45020 0.918454
8905.34961 0.917922
8906.25000 0.917395
8907.15039 0.916863
8908.04980 0.916334
8908.95020 0.915805
8909.84961 0.915274
8910.75000 0.914458
8911.65039 0.913587
8912.55957 0.912708
8913.45996 0.911841
8914.36035 0.910969
8915.26953 0.910093
8916.16992 0.909222
8917.07031 0.908353
8917.96973 0.907478
8918.87012 0.906609
8919.78027 0.905736
8920.67969 0.905478
8921.58008 0.905416
8922.48047 0.905355
8923.37988 0.905295
8924.28027 0.905232
8925.20020 0.905166
8926.08984 0.905106
8927.00000 0.905041
8927.90039 0.904975
8928.79980 0.90491
8929.70996 0.904845
8930.61035 0.904674
8931.50977 0.904453
8932.41992 0.904231
8933.32031 0.904011
8934.23047 0.903792
8935.12988 0.90357
8936.03027 0.903344
8936.92969 0.903123
8937.83984 0.902899
8938.75000 0.902677
8939.65039 0.902452
8940.55957 0.902015
8941.45996 0.901447
8942.37012 0.900875
8943.26953 0.900305
8944.16992 0.899735
8945.08008 0.899167
8945.99023 0.898597
8946.88965 0.898028
8947.79004 0.897459
8948.70020 0.896892
8949.61035 0.896317
8950.50977 0.895736
8951.41016 0.895141
8952.32031 0.894546
8953.23047 0.893952
8954.12988 0.89336
8955.04004 0.892761
8955.95020 0.89217
8956.84961 0.891575
8957.75977 0.890979
8958.66992 0.890382
8959.57031 0.889788
8960.48047 0.889345
8961.37988 0.889036
8962.29004 0.888727
8963.20020 0.888419
8964.09961 0.888109
8965.00977 0.8878
8965.91992 0.887489
8966.82031 0.887179
8967.73047 0.886866
8968.63965 0.886555
8969.54980 0.886242
8970.45996 0.885747
8971.36035 0.885071
8972.26953 0.884395
8973.17969 0.883718
8974.08008 0.883042
8974.99023 0.88236
8975.90039 0.881687
8976.80957 0.881009
8977.71973 0.88033
8978.62988 0.879653
8979.54004 0.878975
8980.44043 0.878576
8981.34961 0.878466
8982.25977 0.878356
8983.16992 0.878245
8984.08008 0.878135
8984.99023 0.878022
8985.90039 0.877911
8986.79980 0.877799
8987.71973 0.877686
8988.62012 0.877574
8989.54004 0.877457
8990.44043 0.877172
8991.34961 0.876712
8992.26953 0.876246
8993.16992 0.875781
8994.08008 0.875319
8995.00000 0.874855
8995.90039 0.87439
8996.80957 0.873926
8997.71973 0.873463
8998.62988 0.873
8999.54980 0.872534
9000.45020 0.872081
9001.36035 0.871641
9002.28027 0.8712
9003.19043 0.870759
9004.09961 0.870319
9005.00977 0.869878
9005.91992 0.869431
9006.83008 0.868992
9007.75000 0.868546
9008.65039 0.868104
9009.55957 0.867664
9010.48047 0.866985
9011.38965 0.866086
9012.29980 0.865182
9013.20996 0.864286
9014.12012 0.86339
9015.04004 0.862488
9015.95020 0.861592
9016.86035 0.860697
9017.76953 0.859794
9018.67969 0.858903
9019.59961 0.858001
9020.50977 0.8575
9021.41992 0.857308
9022.33008 0.857119
9023.25000 0.85693
9024.16016 0.856735
9025.07031 0.856541
9025.99023 0.856351
9026.90039 0.856156
9027.80957 0.855962
9028.73047 0.855768
9029.63965 0.855571
9030.55957 0.855018
9031.45996 0.854242
9032.38965 0.853452
9033.29980 0.85267
9034.20020 0.851892
9035.12012 0.851109
9036.03027 0.850326
9036.95020 0.849547
9037.87012 0.848762
9038.78027 0.847981
9039.70020 0.847194
9040.61035 0.846707
9041.51953 0.846365
9042.44043 0.846022
9043.34961 0.845683
9044.25977 0.845341
9045.19043 0.844991
9046.09961 0.844649
9047.00977 0.844309
9047.92969 0.843966
9048.83984 0.843621
9049.75977 0.843274
9050.67969 0.842735
9051.58984 0.842125
9052.50977 0.841512
9053.41992 0.840905
9054.33984 0.840297
9055.25977 0.839686
9056.16992 0.839079
9057.08008 0.838473
9058.00000 0.837862
9058.91992 0.837253
9059.83984 0.83664
9060.75000 0.836114
9061.66992 0.835611
9062.58984 0.835103
9063.50000 0.834597
9064.41992 0.834093
9065.33984 0.833588
9066.25977 0.833083
9067.16992 0.832576
9068.08984 0.832066
9069.00000 0.831558
9069.91992 0.831053
9070.83984 0.830643
9071.75977 0.83025
9072.67969 0.829852
9073.59961 0.829455
9074.50977 0.829058
9075.42969 0.828656
9076.34961 0.828257
9077.26953 0.82786
9078.19043 0.827457
9079.11035 0.827057
9080.01953 0.826661
9080.94043 0.826341
9081.86035 0.826023
9082.78027 0.825701
9083.70020 0.825378
9084.61035 0.825055
9085.54004 0.82473
9086.45996 0.824407
9087.37012 0.824085
9088.29980 0.82376
9089.21973 0.823434
9090.12988 0.823022
9091.05957 0.822082
9091.98047 0.821147
9092.88965 0.820211
9093.80957 0.819278
9094.73047 0.818342
9095.65039 0.817401
9096.57031 0.816469
9097.49023 0.815537
9098.41992 0.814597
9099.33008 0.813665
9100.25000 0.812973
9101.17969 0.812908
9102.09961 0.812841
9103.01953 0.812775
9103.94043 0.812708
9104.86035 0.812635
9105.78027 0.812566
9106.70020 0.812497
9107.62012 0.812429
9108.54980 0.81236
9109.46973 0.812289
9110.38965 0.811955
9111.30957 0.811257
9112.23047 0.810564
9113.16016 0.809867
9114.08008 0.809174
9115.00000 0.808483
9115.91992 0.807785
9116.84961 0.807092
9117.76953 0.806395
9118.69043 0.805702
9119.61035 0.805009
9120.53027 0.804539
9121.45996 0.804236
9122.37988 0.803933
9123.29980 0.803625
9124.23047 0.803319
9125.15039 0.803015
9126.07031 0.802707
9127.00000 0.802401
9127.91992 0.802089
9128.83984 0.801783
9129.76953 0.801474
9130.69043 0.800711
9131.61035 0.799794
9132.53027 0.798877
9133.45996 0.797956
9134.38965 0.79704
9135.30957 0.796121
9136.24023 0.795202
9137.16016 0.794288
9138.08008 0.793372
9139.00977 0.792453
9139.92969 0.791541
9140.84961 0.791201
9141.78027 0.790902
9142.70996 0.790605
9143.62988 0.790309
9144.55957 0.790012
9145.48047 0.789716
9146.41016 0.789416
9147.33008 0.789116
9148.25977 0.788819
9149.17969 0.788519
9150.11035 0.788179
9151.03027 0.787531
9151.95996 0.786878
9152.88965 0.786231
9153.82031 0.785576
9154.74023 0.784928
9155.66992 0.784278
9156.58984 0.783631
9157.51953 0.782984
9158.44043 0.782332
9159.37012 0.781676
9160.29980 0.781347
9161.21973 0.781692
9162.15039 0.782037
9163.08008 0.782377
9164.00977 0.782718
9164.92969 0.783058
9165.84961 0.783393
9166.79004 0.783733
9167.71973 0.784069
9168.63965 0.7844
9169.57031 0.784735
9170.50000 0.784032
9171.41992 0.782426
9172.34961 0.780815
9173.28027 0.779212
9174.20996 0.777601
9175.13965 0.776002
9176.07031 0.774406
9177.00000 0.772801
9177.91992 0.771212
9178.84961 0.769619
9179.78027 0.768009
9180.70996 0.767381
9181.62988 0.767046
9182.57031 0.766707
9183.49023 0.766369
9184.42969 0.766028
9185.34961 0.765689
9186.28027 0.765351
9187.21973 0.765009
9188.13965 0.764668
9189.07031 0.764328
9190.00000 0.763983
9190.92969 0.76347
9191.86035 0.762949
9192.79980 0.762422
9193.71973 0.761903
9194.65039 0.761381
9195.58008 0.760863
9196.50977 0.760341
9197.44043 0.759815
9198.37012 0.759293
9199.29980 0.758771
9200.24023 0.75832
9201.16992 0.758087
9202.09961 0.757854
9203.01953 0.757623
9203.95020 0.757389
9204.90039 0.757152
9205.82031 0.756919
9206.75000 0.75668
9207.67969 0.756443
9208.61035 0.756208
9209.54980 0.755971
9210.48047 0.75535
9211.41016 0.754374
9212.33984 0.753399
9213.28027 0.75242
9214.20996 0.751443
9215.13965 0.750464
9216.07031 0.749494
9217.00000 0.748524
9217.94043 0.747541
9218.87012 0.746567
9219.79980 0.745597
9220.74023 0.745282
9221.66992 0.745145
9222.59961 0.745011
9223.53027 0.744874
9224.46973 0.744739
9225.40039 0.744604
9226.33008 0.744466
9227.26953 0.744326
9228.20020 0.744189
9229.12988 0.744054
9230.05957 0.743875
9231.00000 0.743187
9231.92969 0.742506
9232.87012 0.741827
9233.80957 0.74114
9234.74023 0.740459
9235.66992 0.739777
9236.61035 0.739089
9237.54004 0.738407
9238.48047 0.737723
9239.41016 0.737042
9240.34961 0.736488
9241.28027 0.736147
9242.20996 0.735807
9243.15039 0.735471
9244.08008 0.735127
9245.01953 0.734788
9245.95020 0.734449
9246.88965 0.734106
9247.83008 0.733765
9248.76953 0.733419
9249.70020 0.733073
9250.62988 0.732421
9251.57031 0.731614
9252.50977 0.730809
9253.44043 0.730006
9254.37988 0.729206
9255.30957 0.728402
9256.25000 0.727601
9257.19043 0.726794
9258.12012 0.72599
9259.05957 0.725186
9260.00000 0.724384
9260.92969 0.7243
9261.87012 0.724219
9262.80957 0.724137
9263.75000 0.724055
9264.69043 0.723971
9265.62012 0.723887
9266.55957 0.723802
9267.49023 0.723715
9268.42969 0.723626
9269.37012 0.723536
9270.30957 0.723307
9271.25000 0.722789
9272.19043 0.722269
9273.12012 0.721751
9274.05957 0.721233
9275.00000 0.720711
9275.94043 0.720194
9276.87012 0.719673
9277.82031 0.71915
9278.75000 0.718631
9279.69043 0.718113
9280.62988 0.717604
9281.57031 0.717098
9282.50977 0.71659
9283.45020 0.716086
9284.38965 0.715581
9285.33008 0.715073
9286.26953 0.714568
9287.20020 0.714062
9288.15039 0.713554
9289.08984 0.713047
9290.03027 0.712537
9290.96973 0.712092
9291.91016 0.711645
9292.84961 0.711201
9293.78027 0.710752
9294.71973 0.710303
9295.66992 0.709853
9296.59961 0.709405
9297.54980 0.708959
9298.49023 0.708509
9299.42969 0.708056
9300.37012 0.707538
9301.30957 0.706923
9302.25000 0.70631
9303.20020 0.70569
9304.13965 0.705076
9305.08008 0.70446
9306.01953 0.703843
9306.95996 0.703228
9307.90039 0.702613
9308.83984 0.701989
9309.78027 0.701375
9310.73047 0.700571
9311.66992 0.699718
9312.61035 0.698862
9313.55957 0.698002
9314.50000 0.697148
9315.42969 0.696298
9316.37988 0.695434
9317.32031 0.694579
9318.25977 0.693731
9319.20996 0.692871
9320.15039 0.692097
9321.08984 0.691736
9322.04004 0.691378
9322.98047 0.69102
9323.91992 0.690659
9324.87012 0.690299
9325.80957 0.689939
9326.75000 0.689578
9327.69043 0.689219
9328.63965 0.688859
9329.58984 0.688494
9330.51953 0.688139
9331.46973 0.687786
9332.41992 0.687438
9333.36035 0.687092
9334.30957 0.686741
9335.25000 0.68639
9336.19043 0.686036
9337.13965 0.68568
9338.08008 0.68533
9339.03027 0.684979
9339.96973 0.684627
9340.91016 0.683973
9341.87012 0.683304
9342.80957 0.682643
9343.75000 0.681984
9344.70020 0.681314
9345.63965 0.680655
9346.58984 0.679993
9347.54004 0.679326
9348.48047 0.67866
9349.41992 0.677998
9350.37988 0.677346
9351.32031 0.676716
9352.25977 0.67609
9353.20996 0.675458
9354.15039 0.67483
9355.11035 0.674192
9356.04980 0.673563
9356.99023 0.672934
9357.94043 0.672301
9358.88965 0.671671
9359.83008 0.671039
9360.78027 0.670593
9361.73047 0.670188
9362.67969 0.669781
9363.62988 0.669373
9364.57031 0.668966
9365.51953 0.668559
9366.46973 0.668153
9367.41016 0.667746
9368.37012 0.667333
9369.30957 0.666925
9370.25977 0.666435
9371.20996 0.665716
9372.15039 0.665002
9373.11035 0.664286
9374.04980 0.66357
9375.00000 0.662861
9375.95020 0.662139
9376.90039 0.661429
9377.84961 0.660713
9378.79004 0.660003
9379.74023 0.659288
9380.69043 0.658762
9381.63965 0.658305
9382.58984 0.657849
9383.54004 0.657391
9384.49023 0.656934
9385.44043 0.656475
9386.38965 0.656018
9387.33984 0.655561
9388.29004 0.655101
9389.24023 0.654639
9390.19043 0.654081
9391.13965 0.653124
9392.08984 0.652164
9393.04004 0.651204
9393.99023 0.650242
9394.94043 0.649284
9395.88965 0.648326
9396.83984 0.647367
9397.79004 0.646408
9398.74023 0.64545
9399.69043 0.644489
9400.65039 0.643858
9401.58984 0.643376
9402.54980 0.642892
9403.50000 0.642412
9404.45020 0.641928
9405.40039 0.641445
9406.34961 0.640963
9407.30957 0.640476
9408.25000 0.639989
9409.20020 0.639504
9410.16016 0.638932
9411.11035 0.637959
9412.05957 0.636978
9413.01953 0.635995
9413.96973 0.635025
9414.91992 0.634048
9415.87988 0.633067
9416.83008 0.632095
9417.78027 0.631121
9418.73047 0.630147
9419.67969 0.629175
9420.63965 0.628484
9421.58984 0.627938
9422.54004 0.627391
9423.50000 0.626842
9424.45020 0.626296
9425.40039 0.625748
9426.36035 0.625199
9427.30957 0.624649
9428.26953 0.624097
9429.21973 0.623551
9430.16992 0.62296
9431.12988 0.622213
9432.08008 0.621462
9433.03027 0.620715
9433.99023 0.619957
9434.94043 0.619213
9435.90039 0.618462
9436.84961 0.617703
9437.80957 0.616955
9438.76953 0.616201
9439.71973 0.615452
9440.66992 0.614806
9441.62988 0.614199
9442.58984 0.613598
9443.54004 0.612995
9444.49023 0.61239
9445.45020 0.611785
9446.40039 0.611181
9447.36035 0.610572
9448.32031 0.609969
9449.28027 0.609361
9450.23047 0.608656
9451.19043 0.607647
9452.15039 0.606629
9453.09961 0.605624
9454.05957 0.604615
9455.01953 0.603604
9455.96973 0.602597
9456.91992 0.601599
9457.87988 0.600583
9458.83984 0.599584
9459.79980 0.598574
9460.75000 0.597874
9461.70996 0.597254
9462.66992 0.596632
9463.62012 0.596016
9464.58008 0.595396
9465.54004 0.594773
9466.49023 0.594158
9467.45020 0.593537
9468.41992 0.59291
9469.37012 0.592289
9470.33008 0.59165
9471.29004 0.590973
9472.24023 0.590293
9473.20020 0.589607
9474.16016 0.58893
9475.12012 0.58825
9476.08008 0.587568
9477.04004 0.586888
9478.00000 0.586206
9478.95996 0.585527
9479.91016 0.584847
9480.87988 0.584154
9481.83008 0.583465
9482.79004 0.582778
9483.75000 0.582083
9484.70996 0.581392
9485.66992 0.580701
9486.62988 0.580007
9487.58984 0.579319
9488.54980 0.578628
9489.50977 0.577932
9490.46973 0.57714
9491.42969 0.576239
9492.38965 0.575349
9493.34961 0.574453
9494.32031 0.573546
9495.26953 0.572656
9496.23047 0.571765
9497.19043 0.570865
9498.15039 0.56997
9499.11035 0.569077
9500.08008 0.568179
9501.04004 0.567295
9502.00000 0.566405
9502.95996 0.565517
9503.91992 0.564633
9504.88965 0.563745
9505.83984 0.562869
9506.79980 0.561982
9507.76953 0.561093
9508.73047 0.560212
9509.69043 0.559331
9510.66016 0.558457
9511.62012 0.55759
9512.58008 0.55672
9513.54004 0.555854
9514.50000 0.554989
9515.46973 0.55412
9516.42969 0.553256
9517.38965 0.552392
9518.34961 0.55153
9519.32031 0.550667
9520.28027 0.549801
9521.25000 0.548904
9522.20996 0.548018
9523.16992 0.547126
9524.13965 0.546242
9525.09961 0.545363
9526.07031 0.544468
9527.03027 0.543586
9527.99023 0.542701
9528.95996 0.541816
9529.91992 0.540934
9530.87988 0.540067
9531.84961 0.539204
9532.80957 0.538339
9533.78027 0.537478
9534.74023 0.536616
9535.70020 0.535757
9536.66992 0.534892
9537.63965 0.534031
9538.59961 0.533169
9539.57031 0.532307
9540.53027 0.531606
9541.49023 0.531036
9542.45996 0.530464
9543.42969 0.529892
9544.38965 0.529321
9545.34961 0.528751
9546.32031 0.528178
9547.29004 0.527604
9548.25000 0.527032
9549.21973 0.526457
9550.19043 0.525888
9551.15039 0.525357
9552.12012 0.524825
9553.08984 0.524289
9554.04980 0.523753
9555.01953 0.523215
9555.99023 0.522681
9556.95020 0.522145
9557.91992 0.52161
9558.88965 0.521077
9559.84961 0.520533
9560.82031 0.519972
9561.79004 0.519414
9562.75000 0.518853
9563.73047 0.518288
9564.69043 0.517726
9565.66016 0.51716
9566.62988 0.516593
9567.58984 0.51603
9568.57031 0.515463
9569.53027 0.514899
9570.50000 0.514339
9571.46973 0.513784
9572.42969 0.513232
9573.40039 0.512676
9574.37012 0.512117
9575.33984 0.511562
9576.30957 0.511005
9577.28027 0.510448
9578.25000 0.509893
9579.21973 0.50933
9580.19043 0.508719
9581.16016 0.507892
9582.12988 0.507059
9583.09961 0.506228
9584.05957 0.505405
9585.03027 0.504576
9586.00000 0.503747
9586.96973 0.502918
9587.94043 0.50209
9588.91016 0.501262
9589.88965 0.500432
9590.84961 0.499668
9591.82031 0.498914
9592.79980 0.498153
9593.76953 0.497397
9594.73047 0.496646
9595.70996 0.495883
9596.66992 0.495133
9597.63965 0.494376
9598.62012 0.493617
9599.58984 0.492863
9600.55957 0.49211
9601.53027 0.49137
9602.50000 0.490634
9603.48047 0.489891
9604.45020 0.489153
9605.41992 0.488415
9606.38965 0.48767
9607.36035 0.486935
9608.33008 0.486198
9609.30957 0.485456
9610.28027 0.484715
9611.25000 0.483946
9612.21973 0.483179
9613.19043 0.482418
9614.16992 0.481645
9615.13965 0.480884
9616.11035 0.480118
9617.08984 0.479353
9618.05957 0.478587
9619.03027 0.477822
9620.00977 0.477055
9620.98047 0.476382
9621.95996 0.47569
9622.92969 0.475015
9623.90039 0.474332
9624.87988 0.473647
9625.84961 0.472967
9626.82031 0.472286
9627.79980 0.471599
9628.76953 0.470922
9629.74023 0.470238
9630.71973 0.469575
9631.69043 0.468922
9632.66992 0.468267
9633.65039 0.467617
9634.61035 0.466967
9635.59961 0.466308
9636.55957 0.465662
9637.54004 0.465008
9638.51953 0.464352
9639.49023 0.463699
9640.46973 0.463027
9641.44043 0.462336
9642.41992 0.461649
9643.40039 0.460957
9644.37012 0.460269
9645.34961 0.459581
9646.33008 0.458887
9647.29004 0.458205
9648.26953 0.457518
9649.25000 0.456822
9650.21973 0.456144
9651.20020 0.455498
9652.17969 0.454852
9653.15039 0.454208
9654.12988 0.453559
9655.11035 0.452915
9656.08008 0.452272
9657.07031 0.451618
9658.04004 0.450975
9659.01953 0.450331
9660.00000 0.449679
9660.96973 0.448908
9661.94043 0.448134
9662.91992 0.447357
9663.90039 0.446583
9664.87988 0.445803
9665.86035 0.445031
9666.83984 0.44426
9667.82031 0.443483
9668.79004 0.442713
9669.76953 0.441944
9670.75000 0.441164
9671.73047 0.440392
9672.70996 0.439621
9673.67969 0.438847
9674.66016 0.438077
9675.63965 0.437301
9676.62012 0.436529
9677.59961 0.435758
9678.58008 0.434982
9679.55957 0.43421
9680.54004 0.433449
9681.51953 0.432683
9682.50000 0.431924
9683.48047 0.431168
9684.45996 0.430404
9685.44043 0.429643
9686.41992 0.428886
9687.40039 0.428129
9688.37012 0.42737
9689.36035 0.426611
9690.33984 0.425854
9691.32031 0.425109
9692.29980 0.424361
9693.28027 0.423616
9694.25977 0.422871
9695.24023 0.422124
9696.21973 0.421376
9697.20996 0.42063
9698.19043 0.419885
9699.16992 0.419141
9700.15039 0.41841
9701.12988 0.41776
9702.09961 0.417108
9703.08984 0.416454
9704.07031 0.415803
9705.04980 0.415154
9706.04004 0.414499
9707.01953 0.413849
9708.00000 0.413189
9708.98047 0.412541
9709.96973 0.411887
9710.95020 0.411212
9711.92969 0.410537
9712.91016 0.409863
9713.90039 0.409189
9714.87988 0.408511
9715.86035 0.407841
9716.83984 0.40716
9717.83008 0.406486
9718.80957 0.405808
9719.79004 0.405134
9720.78027 0.404471
9721.75977 0.403808
9722.75000 0.403146
9723.73047 0.402489
9724.71973 0.401826
9725.70020 0.401165
9726.67969 0.400506
9727.66016 0.399847
9728.65039 0.399186
9729.62988 0.398524
9730.62012 0.397859
9731.59961 0.397194
9732.58984 0.396528
9733.57031 0.395864
9734.54980 0.3952
9735.54004 0.39453
9736.53027 0.393865
9737.50977 0.3932
9738.50000 0.392531
9739.48047 0.391865
9740.46973 0.391175
9741.45020 0.390456
9742.42969 0.389736
9743.41992 0.389015
9744.41016 0.388294
9745.38965 0.387573
9746.37988 0.38685
9747.37012 0.38613
9748.34961 0.385412
9749.33984 0.38469
9750.33008 0.383973
9751.32031 0.383262
9752.29980 0.382552
9753.29004 0.381841
9754.26953 0.381127
9755.25977 0.380419
9756.24023 0.379712
9757.23047 0.378996
9758.21973 0.378287
9759.20020 0.377577
9760.20020 0.376865
9761.17969 0.376162
9762.16992 0.37545
9763.16016 0.374745
9764.15039 0.37404
9765.13965 0.373329
9766.12012 0.372627
9767.09961 0.371924
9768.09961 0.371216
9769.08008 0.370508
9770.07031 0.369801
9771.05957 0.369054
9772.04980 0.368312
9773.04004 0.367566
9774.03027 0.366825
9775.01953 0.366079
9776.00977 0.365332
9777.00000 0.364588
9777.99023 0.363848
9778.98047 0.363103
9779.96973 0.362364
9780.95020 0.36171
9781.94043 0.361064
9782.92969 0.360409
9783.91992 0.359761
9784.91016 0.359106
9785.90039 0.358459
9786.90039 0.357803
9787.87988 0.357155
9788.87012 0.3565
9789.87012 0.355852
9790.84961 0.35519
9791.83984 0.354526
9792.83008 0.353856
9793.82031 0.353194
9794.80957 0.352525
9795.80957 0.351859
9796.79980 0.351194
9797.79004 0.350527
9798.78027 0.349861
9799.76953 0.349193
9800.76953 0.348731
9801.75977 0.348332
9802.75000 0.347933
9803.74023 0.347534
9804.73047 0.347138
9805.71973 0.346738
9806.70996 0.346338
9807.70020 0.345936
9808.70020 0.345531
9809.69043 0.345131
9810.67969 0.344735
9811.67969 0.344337
9812.66992 0.343941
9813.66016 0.343546
9814.66016 0.343149
9815.65039 0.342753
9816.63965 0.342358
9817.62988 0.341958
9818.62012 0.341561
9819.62012 0.341162
9820.61035 0.340701
9821.59961 0.340198
9822.59961 0.339693
9823.59961 0.33919
9824.58984 0.338685
9825.58984 0.338182
9826.58008 0.33768
9827.57031 0.337176
9828.57031 0.336669
9829.55957 0.336163
9830.55957 0.335653
9831.54980 0.335144
9832.54004 0.33463
9833.54004 0.334114
9834.53027 0.3336
9835.53027 0.333086
9836.51953 0.332571
9837.51953 0.332059
9838.50977 0.331545
9839.50977 0.331025
9840.50977 0.330508
9841.50977 0.329987
9842.50000 0.329464
9843.49023 0.328943
9844.49023 0.328424
9845.48047 0.327902
9846.48047 0.327379
9847.48047 0.326857
9848.46973 0.326336
9849.46973 0.325813
9850.46973 0.325294
9851.45996 0.324785
9852.45996 0.324275
9853.45996 0.323767
9854.45020 0.323254
9855.45020 0.322742
9856.45020 0.322234
9857.45020 0.321722
9858.44043 0.321211
9859.44043 0.320702
9860.42969 0.320222
9861.42969 0.319778
9862.42969 0.319337
9863.42969 0.318892
9864.42969 0.318447
9865.42969 0.318005
9866.42969 0.31756
9867.41992 0.317116
9868.41992 0.316672
9869.41992 0.316224
9870.41992 0.315782
9871.41016 0.315348
9872.41992 0.314911
9873.41016 0.314474
9874.41992 0.314031
9875.41016 0.313594
9876.41016 0.313157
9877.41016 0.312717
9878.41016 0.312279
9879.41016 0.311839
9880.41016 0.311384
9881.41016 0.310917
9882.41016 0.310444
9883.41016 0.309967
9884.41016 0.309497
9885.41016 0.309028
9886.41016 0.308557
9887.41016 0.308084
9888.41016 0.307608
9889.41016 0.307134
9890.41016 0.306685
9891.41016 0.306262
9892.41016 0.305837
9893.41016 0.305415
9894.41992 0.304988
9895.41992 0.304563
9896.41992 0.304139
9897.41992 0.303715
9898.41992 0.303295
9899.41992 0.302866
9900.41992 0.302394
9901.41992 0.301865
9902.42969 0.30133
9903.42969 0.300796
9904.42969 0.300266
9905.42969 0.299731
9906.42969 0.299199
9907.44043 0.298665
9908.44043 0.298133
9909.44043 0.297601
9910.45020 0.297076
9911.45020 0.296566
9912.44043 0.296061
9913.45020 0.29555
9914.45020 0.29504
9915.45020 0.294532
9916.45996 0.294019
9917.45996 0.293512
9918.46973 0.293001
9919.46973 0.292489
9920.48047 0.291979
9921.48047 0.291465
9922.48047 0.290955
9923.49023 0.290446
9924.49023 0.289935
9925.49023 0.289424
9926.49023 0.288912
9927.50000 0.288397
9928.50000 0.287888
9929.50977 0.287373
9930.51953 0.286855
9931.51953 0.28633
9932.53027 0.2858
9933.53027 0.285273
9934.53027 0.284746
9935.54004 0.284217
9936.54980 0.283691
9937.54980 0.28317
9938.55957 0.282635
9939.55957 0.282109
9940.57031 0.281634
9941.57031 0.281199
9942.58008 0.280765
9943.58984 0.28033
9944.58984 0.279897
9945.59961 0.279462
9946.61035 0.279023
9947.61035 0.278588
9948.62012 0.27815
9949.62988 0.277711
9950.62988 0.277265
9951.63965 0.276808
9952.63965 0.276355
9953.65039 0.275901
9954.66016 0.275442
9955.66016 0.274984
9956.66992 0.274527
9957.67969 0.274068
9958.69043 0.273611
9959.69043 0.273154
9960.70020 0.272703
9961.70996 0.272256
9962.71973 0.271809
9963.71973 0.271362
9964.73047 0.270915
9965.74023 0.270465
9966.75000 0.270015
9967.75977 0.269567
9968.76953 0.269115
9969.76953 0.268665
9970.78027 0.268212
9971.79980 0.267752
9972.79980 0.267296
9973.80957 0.26684
9974.82031 0.266379
9975.83008 0.265919
9976.83984 0.265459
9977.84961 0.264999
9978.84961 0.264542
9979.87012 0.26408
9980.87988 0.263544
9981.87988 0.263001
9982.90039 0.262449
9983.91016 0.261901
9984.91016 0.261356
9985.92969 0.260806
9986.94043 0.260258
9987.95020 0.25971
9988.95996 0.259159
9989.96973 0.258609
9990.98047 0.258074
9991.99023 0.25753
9993.00000 0.25699
9994.00977 0.256451
9995.01953 0.255907
9996.03027 0.255369
9997.04980 0.254827
9998.05957 0.254284
9999.07031 0.253738
10000.08008 0.253211
10001.08984 0.252797
10002.11035 0.252377
10003.12012 0.251962
10004.12988 0.251548
10005.13965 0.251132
10006.15039 0.250719
10007.16016 0.250304
10008.17969 0.249885
10009.19043 0.24947
10010.20996 0.249054
10011.21973 0.248631
10012.23047 0.248208
10013.24023 0.247785
10014.25000 0.247363
10015.25977 0.24694
10016.29004 0.246513
10017.29980 0.24609
10018.30957 0.245667
10019.32031 0.245245
10020.33008 0.244848
10021.36035 0.244501
10022.37012 0.244158
10023.37988 0.243814
10024.38965 0.24347
10025.41016 0.243126
10026.41992 0.242782
10027.42969 0.242437
10028.44043 0.242092
10029.45996 0.241747
10030.48047 0.241393
10031.50000 0.241037
10032.50977 0.240681
10033.51953 0.240325
10034.54004 0.239968
10035.55957 0.239607
10036.57031 0.23925
10037.58008 0.238897
10038.59961 0.238535
10039.62012 0.238177
10040.62988 0.237821
10041.63965 0.237464
10042.66016 0.237109
10043.67969 0.236748
10044.70020 0.236391
10045.70996 0.236034
10046.73047 0.235677
10047.74023 0.235319
10048.75977 0.234961
10049.78027 0.234599
10050.79980 0.234238
10051.79980 0.233881
10052.83008 0.233515
10053.84961 0.233153
10054.86035 0.232791
10055.87988 0.232429
10056.88965 0.232066
10057.91992 0.231699
10058.94043 0.231336
10059.95020 0.230972
10060.96973 0.23056
10061.98047 0.230146
10063.00000 0.229731
10064.03027 0.229312
10065.03027 0.228901
10066.05957 0.228482
10067.08008 0.228067
10068.09961 0.227652
10069.11035 0.227236
10070.12988 0.226821
10071.15039 0.22641
10072.17969 0.225994
10073.19043 0.225583
10074.20996 0.225171
10075.23047 0.224759
10076.25000 0.224348
10077.26953 0.223931
10078.29004 0.223519
10079.29980 0.223111
10080.33008 0.222693
10081.34961 0.222277
10082.37012 0.221861
10083.37988 0.221444
10084.40039 0.221028
10085.41992 0.220611
10086.45020 0.22019
10087.46973 0.219773
10088.49023 0.219356
10089.50977 0.218939
10090.53027 0.218527
10091.54980 0.218118
10092.57031 0.21771
10093.58984 0.217301
10094.62012 0.216888
10095.63965 0.216478
10096.66016 0.216069
10097.67969 0.21566
10098.70020 0.21525
10099.73047 0.214836
10100.75000 0.214447
10101.76953 0.214065
10102.79004 0.213684
10103.80957 0.213301
10104.83008 0.212919
10105.84961 0.212536
10106.87012 0.212154
10107.88965 0.21177
10108.91992 0.211383
10109.95020 0.211
10110.96973 0.210638
10111.99023 0.210278
10113.00977 0.209917
10114.04004 0.209552
10115.05957 0.209191
10116.08984 0.208829
10117.11035 0.208468
10118.12988 0.208105
10119.15039 0.207742
10120.16992 0.207377
10121.20020 0.206996
10122.23047 0.20661
10123.25000 0.206229
10124.28027 0.205847
10125.29980 0.205465
10126.32031 0.205083
10127.33984 0.2047
10128.37988 0.204313
10129.40039 0.20393
10130.41992 0.203553
10131.45020 0.203183
10132.46973 0.202812
10133.49023 0.202442
10134.51953 0.20207
10135.54004 0.201699
10136.58008 0.201323
10137.59961 0.200951
10138.62012 0.200578
10139.65039 0.200206
10140.66992 0.199788
10141.70020 0.199346
10142.73047 0.198899
10143.75977 0.198458
10144.78027 0.198015
10145.80957 0.197574
10146.83008 0.197132
10147.86035 0.19669
10148.87988 0.196248
10149.91016 0.195805
10150.94043 0.195356
10151.96973 0.194911
10153.00000 0.194466
10154.01953 0.194022
10155.04980 0.193576
10156.07031 0.193132
10157.11035 0.192682
10158.13965 0.192237
10159.16016 0.191791
10160.19043 0.191347
10161.20996 0.190901
10162.24023 0.190455
10163.26953 0.190009
10164.29004 0.189564
10165.33008 0.189113
10166.36035 0.188668
10167.38965 0.188222
10168.41016 0.187776
10169.44043 0.18733
10170.48047 0.186889
10171.50977 0.186463
10172.53027 0.186036
10173.55957 0.18561
10174.58984 0.185184
10175.62012 0.184758
10176.63965 0.184331
10177.66992 0.183904
10178.70020 0.183478
10179.74023 0.183046
10180.76953 0.182631
10181.79980 0.18222
10182.83008 0.18181
10183.84961 0.181399
10184.88965 0.180983
10185.91992 0.180572
10186.95020 0.18016
10187.98047 0.179748
10189.00977 0.179336
10190.04004 0.178924
10191.07031 0.178515
10192.09961 0.178107
10193.13965 0.177693
10194.16992 0.177284
10195.20020 0.176874
10196.23047 0.176464
10197.25977 0.176055
10198.29004 0.175645
10199.33008 0.17523
10200.36035 0.17486
10201.38965 0.174569
10202.41992 0.174277
10203.45020 0.173985
10204.48047 0.173692
10205.50977 0.1734
10206.54004 0.173107
10207.58984 0.172811
10208.62012 0.172518
10209.65039 0.172225
10210.67969 0.171938
10211.70996 0.171653
10212.74023 0.171367
10213.79004 0.171079
10214.82031 0.170793
10215.84961 0.170507
10216.87988 0.170222
10217.91016 0.169936
10218.95020 0.16965
10219.98047 0.169363
10221.00977 0.169043
10222.04980 0.16872
10223.08984 0.168399
10224.12012 0.168079
10225.15039 0.167758
10226.19043 0.167438
10227.23047 0.167114
10228.25977 0.166793
10229.29980 0.166472
10230.33008 0.166158
10231.36035 0.165857
10232.40039 0.165557
10233.42969 0.165256
10234.45996 0.164955
10235.50000 0.164654
10236.54004 0.164349
10237.58008 0.164048
10238.61035 0.163746
10239.63965 0.163444
10240.67969 0.163144
10241.73047 0.162843
10242.75977 0.162544
10243.79004 0.162245
10244.83008 0.161946
10245.86035 0.161647
10246.90039 0.161348
10247.92969 0.161049
10248.96973 0.160749
10250.01953 0.160446
10251.04980 0.160132
10252.08984 0.159818
10253.12012 0.159503
10254.16016 0.159189
10255.19043 0.158874
10256.24023 0.158556
10257.26953 0.158245
10258.29980 0.15793
10259.34961 0.157612
10260.38965 0.157294
10261.41992 0.156971
10262.45996 0.156648
10263.50000 0.156325
10264.54004 0.155999
10265.58008 0.155676
10266.62012 0.155352
10267.66016 0.155029
10268.69043 0.154705
10269.73047 0.154381
10270.78027 0.15407
10271.79980 0.153771
10272.84961 0.153466
10273.88965 0.153163
10274.92969 0.152861
10275.96973 0.152558
10277.00000 0.152255
10278.04004 0.151952
10279.08984 0.151645
10280.12988 0.151339
10281.16992 0.151018
10282.20996 0.150698
10283.25000 0.150377
10284.29980 0.150052
10285.32031 0.149734
10286.36035 0.149413
10287.41016 0.149087
10288.45020 0.148766
10289.49023 0.148444
10290.53027 0.14813
10291.57031 0.147822
10292.61035 0.147514
10293.66016 0.147203
10294.70020 0.146895
10295.74023 0.146587
10296.78027 0.146278
10297.82031 0.14597
10298.86035 0.145661
10299.90039 0.145352
10300.94043 0.145038
10302.00000 0.14472
10303.04004 0.144405
10304.08008 0.14409
10305.12012 0.143775
10306.16016 0.14346
10307.20996 0.143141
10308.25000 0.142825
10309.29004 0.142509
10310.33008 0.142193
10311.37988 0.141878
10312.41992 0.141561
10313.45996 0.141245
10314.50000 0.140929
10315.54004 0.140612
10316.59961 0.140292
10317.63965 0.139976
10318.67969 0.139659
10319.71973 0.139341
10320.76953 0.139028
10321.82031 0.138714
10322.86035 0.138402
10323.91016 0.13809
10324.95020 0.137778
10325.99023 0.137466
10327.03027 0.137154
10328.08008 0.136841
10329.12012 0.136528
10330.16016 0.136213
10331.21973 0.135885
10332.25977 0.13556
10333.30957 0.135236
10334.34961 0.13491
10335.38965 0.134585
10336.45020 0.134257
10337.49023 0.133931
10338.54004 0.133606
10339.58008 0.13328
10340.62988 0.132963
10341.66992 0.132649
10342.71973 0.132337
10343.75977 0.132023
10344.82031 0.131707
10345.86035 0.131392
10346.91016 0.131079
10347.95020 0.130765
10349.00000 0.13045
10350.04004 0.130136
10351.09961 0.129804
10352.15039 0.129475
10353.17969 0.12915
10354.24023 0.128818
10355.28027 0.128489
10356.33008 0.12816
10357.37988 0.127831
10358.41992 0.127502
10359.48047 0.127169
10360.53027 0.126849
10361.57031 0.12654
10362.62012 0.12623
10363.66992 0.12592
10364.70996 0.12561
10365.76953 0.125296
10366.82031 0.124986
10367.87012 0.124675
10368.91016 0.124364
10369.95996 0.124053
10371.00977 0.123722
10372.05957 0.12339
10373.09961 0.123059
10374.16016 0.122723
10375.20996 0.122391
10376.25977 0.122059
10377.30957 0.121726
10378.36035 0.121393
10379.41992 0.121057
10380.45996 0.120724
10381.50000 0.120394
10382.55957 0.120057
10383.61035 0.119724
10384.66016 0.119389
10385.70996 0.119055
10386.75977 0.118721
10387.80957 0.118387
10388.87012 0.118049
10389.91992 0.117715
10390.96973 0.117365
10392.01953 0.117015
10393.07031 0.116664
10394.12988 0.116311
10395.17969 0.11596
10396.21973 0.115613
10397.28027 0.115258
10398.33008 0.114909
10399.37988 0.114558
10400.42969 0.114249
10401.48047 0.114
10402.54004 0.113748
10403.58984 0.1135
10404.63965 0.113251
10405.69043 0.113002
10406.75000 0.112753
10407.79980 0.112504
10408.84961 0.112255
10409.90039 0.112005
10410.95020 0.111753
10412.00977 0.111496
10413.07031 0.111243
10414.12012 0.110989
10415.16992 0.110736
10416.21973 0.110482
10417.29004 0.110227
10418.33984 0.109973
10419.38965 0.109719
10420.44043 0.109473
10421.50000 0.109239
10422.54980 0.109004
10423.59961 0.108769
10424.65039 0.108533
10425.71973 0.108296
10426.76953 0.10806
10427.82031 0.107825
10428.87988 0.107589
10429.92969 0.107353
10430.99023 0.10711
10432.04980 0.106862
10433.09961 0.106617
10434.16016 0.106372
10435.20996 0.106127
10436.26953 0.105882
10437.32031 0.105637
10438.37988 0.105392
10439.42969 0.105146
10440.50000 0.104905
10441.54980 0.104676
10442.59961 0.104446
10443.66016 0.104216
10444.70996 0.103986
10445.76953 0.103756
10446.83984 0.103523
10447.88965 0.103292
10448.95020 0.103061
10450.00000 0.10283
10451.05957 0.102585
10452.11035 0.10234
10453.16992 0.102094
10454.23047 0.101848
10455.29004 0.1016
10456.34961 0.101355
10457.41016 0.101109
10458.45996 0.100863
10459.51953 0.100617
10460.58984 0.100362
10461.63965 0.100105
10462.70020 0.0998476
10463.75977 0.0995905
10464.80957 0.0993329
10465.87012 0.0990762
10466.92969 0.0988186
10467.99023 0.0985614
10469.04004 0.0983039
10470.11035 0.0980438
10471.16992 0.0977854
10472.23047 0.0975272
10473.29004 0.0972682
10474.33984 0.0970094
10475.41016 0.096748
10476.46973 0.0964893
10477.53027 0.0962307
10478.58984 0.0959718
10479.65039 0.0957132
10480.70996 0.0954474
10481.75977 0.0951782
10482.82031 0.0949083
10483.88965 0.094636
10484.95020 0.0943667
10486.00977 0.0940971
10487.07031 0.0938278
10488.12988 0.0935585
10489.19043 0.0932893
10490.25977 0.0930204
10491.32031 0.092766
10492.37988 0.0925118
10493.44043 0.0922575
10494.50000 0.092003
10495.55957 0.0917486
10496.62012 0.0914938
10497.67969 0.0912389
10498.75000 0.0909813
10499.80957 0.0907263
10500.87012 0.0904753
10501.92969 0.0902246
10503.00000 0.0899739
10504.05957 0.0897231
10505.12988 0.0894694
10506.19043 0.0892183
10507.25000 0.0889671
10508.30957 0.0887161
10509.37988 0.0884646
10510.44043 0.0882149
10511.50000 0.0879676
10512.55957 0.0877203
10513.62988 0.0874699
10514.70020 0.0872223
10515.75977 0.0869744
10516.82031 0.0867264
10517.87988 0.0864782
10518.95020 0.0862301
10520.01953 0.0859794
10521.08008 0.0857276
10522.13965 0.0854768
10523.20996 0.0852256
10524.26953 0.0849739
10525.33008 0.0847221
10526.40039 0.0844704
10527.45996 0.0842186
10528.54004 0.0839643
10529.59961 0.0837121
10530.66016 0.0834555
10531.73047 0.0831954
10532.79004 0.082936
10533.87012 0.0826734
10534.92969 0.0824135
10535.99023 0.0821536
10537.05957 0.0818932
10538.12012 0.0816338
10539.19043 0.0813734
10540.25000 0.0811128
10541.32031 0.0808498
10542.37988 0.0805864
10543.45996 0.0803206
10544.51953 0.0800574
10545.58984 0.0797945
10546.65039 0.079531
10547.71973 0.0792676
10548.79980 0.0790015
10549.86035 0.0787384
10550.92969 0.0784856
10551.99023 0.0782338
10553.05957 0.0779827
10554.12012 0.0777315
10555.19043 0.0774798
10556.25977 0.0772279
10557.33984 0.0769736
10558.40039 0.0767215
10559.46973 0.0764693
10560.54004 0.0762176
10561.59961 0.0759659
10562.66992 0.0757142
10563.75000 0.0754595
10564.80957 0.0752077
10565.87012 0.0749583
10566.95020 0.0747035
10568.01953 0.0744511
10569.08008 0.0741986
10570.15039 0.073944
10571.21973 0.0736811
10572.29980 0.0734154
10573.37012 0.073152
10574.44043 0.0728884
10575.50000 0.0726249
10576.57031 0.0723615
10577.63965 0.0720982
10578.71973 0.0718317
10579.79004 0.0715681
10580.86035 0.071307
10581.92969 0.0710468
10583.00000 0.0707866
10584.05957 0.0705253
10585.12988 0.070265
10586.20020 0.0700041
10587.28027 0.0697402
10588.34961 0.0694796
10589.41992 0.0692189
10590.49023 0.0689594
10591.55957 0.0687024
10592.63965 0.0684425
10593.70020 0.0681881
10594.76953 0.0679311
10595.84961 0.0676704
10596.91992 0.067413
10598.00000 0.0671553
10599.07031 0.0668975
10600.13965 0.0666493
10601.20996 0.0664659
10602.29004 0.0662805
10603.36035 0.0660967
10604.42969 0.0659128
10605.50000 0.065729
10606.58008 0.0655451
10607.66016 0.0653588
10608.71973 0.0651768
10609.79004 0.0649923
10610.87012 0.0648003
10611.94043 0.0646097
10613.01953 0.0644183
10614.08984 0.0642275
10615.16016 0.064036
10616.25000 0.0638423
10617.32031 0.0636511
10618.38965 0.0634595
10619.45996 0.0632678
10620.54004 0.0630796
10621.61035 0.062894
10622.67969 0.0627084
10623.75000 0.0625225
10624.83008 0.0623367
10625.91016 0.0621491
10626.99023 0.0619627
10628.05957 0.0617771
10629.12988 0.0615906
10630.20996 0.0614038
10631.29004 0.0612129
10632.37012 0.0610241
10633.44043 0.0608348
10634.50977 0.0606455
10635.58984 0.0604562
10636.66016 0.0602669
10637.74023 0.0600779
10638.80957 0.0598884
10639.90039 0.0596971
10640.96973 0.0595074
10642.04980 0.0593178
10643.12012 0.0591278
10644.20020 0.0589383
10645.26953 0.0587483
10646.36035 0.0585565
10647.44043 0.0583664
10648.50977 0.0581764
10649.58984 0.057986
10650.66016 0.0577955
10651.74023 0.0576045
10652.82031 0.0574128
10653.88965 0.0572215
10654.98047 0.0570284
10656.05957 0.0568367
10657.12988 0.0566455
10658.20996 0.0564536
10659.29004 0.0562622
10660.36035 0.0560705
10661.45020 0.0558778
10662.53027 0.0556867
10663.59961 0.0554957
10664.67969 0.0553046
10665.75977 0.0551131
10666.83984 0.0549216
10667.91016 0.0547307
10668.99023 0.0545386
10670.08008 0.0543459
10671.16016 0.0541561
10672.24023 0.0539666
10673.32031 0.0537765
10674.38965 0.0535867
10675.48047 0.0533948
10676.55957 0.0532049
10677.63965 0.0530145
10678.71973 0.0528244
10679.79980 0.0526341
10680.87988 0.0524405
10681.95996 0.0522452
10683.03027 0.0520502
10684.11035 0.0518548
10685.20996 0.0516574
10686.28027 0.0514627
10687.36035 0.0512672
10688.44043 0.0510719
10689.51953 0.0508767
10690.61035 0.0506805
10691.69043 0.050487
10692.76953 0.0502938
10693.84961 0.0501
10694.92969 0.0499067
10696.01953 0.0497132
10697.09961 0.0495194
10698.17969 0.0493259
10699.25977 0.0491321
10700.34961 0.0489359
10701.42969 0.0487413
10702.50977 0.0485467
10703.58984 0.0483519
10704.66992 0.0481573
10705.76953 0.0479604
10706.84961 0.0477651
10707.91992 0.0475727
10709.00977 0.0473756
10710.08984 0.04718
10711.17969 0.0469801
10712.25977 0.0467794
10713.33984 0.0465792
10714.42969 0.046377
10715.51953 0.0461769
10716.59961 0.0459765
10717.67969 0.0457762
10718.75977 0.0455756
10719.84961 0.0453757
10720.94043 0.045178
10722.01953 0.044983
10723.09961 0.0447905
10724.19043 0.0445936
10725.26953 0.0443985
10726.36035 0.0442037
10727.44043 0.0440084
10728.51953 0.0438132
10729.62012 0.043616
10730.70020 0.0434207
10731.79004 0.0432255
10732.87012 0.0430303
10733.95996 0.0428354
10735.04004 0.0426399
10736.13965 0.0424421
10737.20996 0.0422488
10738.30957 0.0420508
10739.38965 0.0418553
10740.48047 0.0416582
10741.55957 0.0414594
10742.65039 0.0412605
10743.73047 0.0410617
10744.83008 0.0408604
10745.91016 0.0406615
10747.00000 0.0404625
10748.08008 0.0402634
10749.16992 0.0400644
10750.26953 0.0398646
10751.33984 0.039674
10752.42969 0.039481
10753.53027 0.0392859
10754.61035 0.0390928
10755.70020 0.0388998
10756.79004 0.0387062
10757.87012 0.0385133
10758.95996 0.0383195
10760.05957 0.0381236
10761.13965 0.0379238
10762.23047 0.0377241
10763.32031 0.0375243
10764.41016 0.0373248
10765.50000 0.0371227
10766.58008 0.0369252
10767.66992 0.0367251
10768.76953 0.0365229
10769.86035 0.036323
10770.94043 0.0361245
10772.03027 0.0359268
10773.12012 0.0357286
10774.21973 0.0355284
10775.30957 0.0353299
10776.40039 0.0351315
10777.49023 0.0349331
10778.57031 0.0347345
10779.66016 0.0345361
10780.75000 0.0343388
10781.83984 0.0341423
10782.92969 0.0339456
10784.03027 0.0337471
10785.12012 0.0335503
10786.20996 0.0333536
10787.29980 0.0331567
10788.38965 0.0329597
10789.49023 0.0327601
10790.58008 0.0325628
10791.66992 0.0323649
10792.75977 0.0321671
10793.84961 0.0319691
10794.94043 0.0317716
10796.03027 0.0315732
10797.12012 0.0313748
10798.21973 0.0311745
10799.32031 0.0309763
10800.41016 0.0306895
10801.50000 0.0302561
10802.58984 0.0298256
10803.67969 0.0293976
10804.78027 0.0289683
10805.87988 0.0285458
10806.96973 0.0281264
10808.05957 0.0277101
10809.15039 0.0272964
10810.24023 0.0268849
10811.33008 0.0264753
10812.42969 0.0260686
10813.53027 0.0256598
10814.62012 0.0252589
10815.70996 0.0248604
10816.80957 0.024465
10817.90039 0.0240725
10818.99023 0.0236826
10820.09961 0.0232921
10821.19043 0.0229079
10822.28027 0.0225264
10823.37988 0.0221483
10824.46973 0.0217727
10825.55957 0.0214001
10826.66016 0.0210307
10827.75000 0.0206639
10828.86035 0.0202962
10829.95020 0.019935
10831.04004 0.0195781
10832.13965 0.0192243
10833.23047 0.018873
10834.33984 0.018521
10835.42969 0.0181759
10836.53027 0.0178334
10837.62012 0.0174938
10838.71973 0.0171571
10839.80957 0.0168233
10840.91016 0.0164933
10842.00000 0.0161665
10843.09961 0.0158426
10844.20996 0.0155185
10845.29980 0.0152003
10846.40039 0.014885
10847.49023 0.0145726
10848.58984 0.0142631
10849.70020 0.0139531
10850.79004 0.0136479
10851.88965 0.0133454
10852.98047 0.0130456
10854.08008 0.0127491
10855.17969 0.0124555
10856.26953 0.0121648
10857.37012 0.011877
10858.48047 0.0115892
10859.58008 0.0113074
10860.66992 0.0110287
10861.76953 0.0107533
10862.87012 0.0104807
10863.95996 0.0102113
10865.07031 0.00994184
10866.16992 0.00967833
10867.26953 0.00941773
10868.37012 0.00915984
10869.45996 0.00890509
10870.55957 0.00865343
10871.66016 0.00840461
10872.75977 0.00815891
10873.87012 0.00791339
10874.96973 0.00767337
10876.07031 0.00743649
10877.16992 0.00720262
10878.25977 0.00697168
10879.36035 0.0067437
10880.46973 0.00651595
10881.57031 0.0062936
10882.66992 0.00607404
10883.76953 0.00585745
10884.87012 0.00564384
10885.96973 0.00543319
10887.07031 0.00522567
10888.17969 0.00501905
10889.26953 0.00481971
11978.19629 0.0
