# %ECSV 0.9
# ---
# datatype:
# - {name: wavelength, unit: Angstrom, datatype: float32}
# - {name: response, datatype: float32}
# meta: !!omap
# - {band_name: F190N}
# - {group_name: NICMOS3}
wavelength response
18798.15039 0.0
18798.33008 5.9e-05
18798.51953 0.000232
18798.69922 0.000405
18798.88086 0.000579
18799.07031 0.000754
18799.25000 0.000927
18799.43945 0.0011
18799.61914 0.001274
18799.80078 0.001447
18799.99023 0.001622
18800.16992 0.001631
18800.35938 0.001629
18800.53906 0.001626
18800.72070 0.001624
18800.91016 0.001621
18801.08984 0.001619
18801.27930 0.001617
18801.46094 0.001614
18801.64062 0.001612
18801.83008 0.00161
18802.00977 0.001609
18802.19922 0.001629
18802.38086 0.001648
18802.56055 0.001668
18802.75000 0.001688
18802.92969 0.001708
18803.11914 0.001728
18803.30078 0.001747
18803.48047 0.001767
18803.66992 0.001787
18803.84961 0.001807
18804.03906 0.001808
18804.22070 0.001737
18804.41016 0.001667
18804.58984 0.001597
18804.76953 0.001527
18804.96094 0.001456
18805.14062 0.001385
18805.33008 0.001315
18805.50977 0.001245
18805.69922 0.001174
18805.88086 0.001103
18806.06055 0.001055
18806.25000 0.00105
18806.42969 0.001044
18806.61914 0.001039
18806.80078 0.001033
18806.98047 0.001028
18807.16992 0.001022
18807.34961 0.001017
18807.53906 0.001011
18807.72070 0.001006
18807.90039 0.001
18808.08984 0.001025
18808.26953 0.001084
18808.46094 0.001142
18808.64062 0.0012
18808.82031 0.001257
18809.00977 0.001316
18809.18945 0.001374
18809.38086 0.001432
18809.56055 0.00149
18809.75000 0.001548
18809.92969 0.001606
18810.10938 0.001622
18810.30078 0.001611
18810.48047 0.001601
18810.66992 0.001591
18810.84961 0.00158
18811.03906 0.00157
18811.22070 0.00156
18811.40039 0.00155
18811.58984 0.001539
18811.76953 0.001529
18811.96094 0.001519
18812.14062 0.001534
18812.32031 0.001558
18812.50977 0.001582
18812.68945 0.001605
18812.88086 0.001629
18813.06055 0.001653
18813.25000 0.001677
18813.42969 0.0017
18813.60938 0.001724
18813.80078 0.001748
18813.98047 0.001772
18814.16992 0.001713
18814.34961 0.001646
18814.53906 0.001578
18814.72070 0.00151
18814.90039 0.001443
18815.08984 0.001375
18815.26953 0.001307
18815.46094 0.00124
18815.64062 0.001172
18815.82031 0.001104
18816.00977 0.001041
18816.18945 0.001082
18816.38086 0.001123
18816.56055 0.001163
18816.75000 0.001204
18816.92969 0.001245
18817.10938 0.001285
18817.30078 0.001326
18817.48047 0.001367
18817.66992 0.001408
18817.84961 0.001448
18818.03906 0.001487
18818.22070 0.001514
18818.40039 0.001542
18818.58984 0.001569
18818.76953 0.001596
18818.96094 0.001624
18819.14062 0.001652
18819.32031 0.001679
18819.50977 0.001707
18819.68945 0.001734
18819.88086 0.001761
18820.06055 0.001811
18820.25000 0.001901
18820.42969 0.001992
18820.61914 0.002083
18820.80078 0.002173
18820.98047 0.002264
18821.16992 0.002355
18821.34961 0.002446
18821.53906 0.002536
18821.72070 0.002628
18821.90039 0.002718
18822.08984 0.002708
18822.26953 0.002589
18822.46094 0.00247
18822.64062 0.002352
18822.83008 0.002232
18823.00977 0.002113
18823.18945 0.001995
18823.38086 0.001875
18823.56055 0.001757
18823.75000 0.001637
18823.92969 0.001518
18824.11914 0.001505
18824.30078 0.001555
18824.48047 0.001604
18824.66992 0.001654
18824.84961 0.001704
18825.03906 0.001753
18825.22070 0.001802
18825.41016 0.001852
18825.58984 0.001901
18825.77930 0.001951
18825.96094 0.002001
18826.14062 0.002108
18826.33008 0.002234
18826.50977 0.002359
18826.69922 0.002483
18826.88086 0.002609
18827.06055 0.002733
18827.25000 0.002859
18827.42969 0.002984
18827.61914 0.003108
18827.80078 0.003234
18827.99023 0.003358
18828.16992 0.003373
18828.35938 0.003379
18828.53906 0.003385
18828.72070 0.003391
18828.91016 0.003397
18829.08984 0.003403
18829.27930 0.003409
18829.46094 0.003414
18829.65039 0.00342
18829.83008 0.003426
18830.00977 0.003432
18830.19922 0.003434
18830.38086 0.003437
18830.57031 0.003439
18830.75000 0.003441
18830.93945 0.003444
18831.11914 0.003446
18831.30078 0.003448
18831.49023 0.003451
18831.66992 0.003453
18831.85938 0.003455
18832.03906 0.003432
18832.23047 0.003323
18832.41016 0.003213
18832.59961 0.003104
18832.77930 0.002995
18832.96094 0.002885
18833.15039 0.002777
18833.33008 0.002667
18833.51953 0.002558
18833.69922 0.002449
18833.89062 0.002339
18834.07031 0.00231
18834.25977 0.00241
18834.43945 0.002509
18834.61914 0.002608
18834.81055 0.002709
18834.99023 0.002808
18835.17969 0.002908
18835.35938 0.003007
18835.55078 0.003107
18835.73047 0.003206
18835.91016 0.003305
18836.09961 0.00339
18836.27930 0.00346
18836.47070 0.00353
18836.65039 0.0036
18836.83984 0.003671
18837.01953 0.003741
18837.21094 0.003811
18837.39062 0.003882
18837.57031 0.003952
18837.75977 0.004022
18837.93945 0.004092
18838.13086 0.004136
18838.31055 0.004168
18838.50000 0.0042
18838.67969 0.004233
18838.86914 0.004264
18839.05078 0.004297
18839.23047 0.004329
18839.41992 0.004361
18839.59961 0.004393
18839.78906 0.004425
18839.97070 0.004457
18840.16016 0.004453
18840.33984 0.004442
18840.52930 0.004431
18840.71094 0.00442
18840.89062 0.004409
18841.08008 0.004398
18841.25977 0.004387
18841.44922 0.004376
18841.63086 0.004364
18841.82031 0.004354
18842.00000 0.004343
18842.18945 0.004415
18842.36914 0.004487
18842.55078 0.004558
18842.74023 0.00463
18842.91992 0.004702
18843.10938 0.004774
18843.28906 0.004845
18843.48047 0.004916
18843.66016 0.004989
18843.84961 0.00506
18844.02930 0.005122
18844.21094 0.005131
18844.40039 0.005141
18844.58008 0.00515
18844.76953 0.00516
18844.94922 0.005169
18845.14062 0.005178
18845.32031 0.005188
18845.50977 0.005197
18845.68945 0.005207
18845.88086 0.005216
18846.06055 0.005243
18846.24023 0.005303
18846.42969 0.005364
18846.60938 0.005424
18846.80078 0.005485
18846.98047 0.005545
18847.16992 0.005606
18847.34961 0.005667
18847.53906 0.005728
18847.72070 0.005788
18847.91016 0.005849
18848.08984 0.005906
18848.27930 0.005959
18848.46094 0.006012
18848.64062 0.006066
18848.83008 0.006119
18849.00977 0.006172
18849.19922 0.006225
18849.38086 0.006279
18849.57031 0.006331
18849.75000 0.006385
18849.93945 0.006438
18850.11914 0.006508
18850.30078 0.006586
18850.49023 0.006665
18850.66992 0.006742
18850.85938 0.006821
18851.03906 0.006899
18851.23047 0.006978
18851.41016 0.007056
18851.59961 0.007135
18851.77930 0.007212
18851.97070 0.007291
18852.15039 0.007272
18852.33984 0.007231
18852.51953 0.00719
18852.71094 0.007148
18852.89062 0.007108
18853.07031 0.007066
18853.25977 0.007026
18853.43945 0.006984
18853.63086 0.006944
18853.81055 0.006902
18854.00000 0.006861
18854.17969 0.006906
18854.36914 0.006951
18854.55078 0.006997
18854.73047 0.007043
18854.91992 0.007089
18855.09961 0.007135
18855.28906 0.007181
18855.47070 0.007226
18855.66016 0.007272
18855.83984 0.007318
18856.02930 0.007374
18856.21094 0.007485
18856.40039 0.007598
18856.58008 0.007709
18856.76953 0.007822
18856.94922 0.007934
18857.13086 0.008046
18857.32031 0.008159
18857.50000 0.008271
18857.68945 0.008383
18857.86914 0.008495
18858.06055 0.0086
18858.24023 0.008688
18858.42969 0.008776
18858.60938 0.008864
18858.80078 0.008953
18858.98047 0.009041
18859.16992 0.00913
18859.34961 0.009217
18859.53906 0.009306
18859.72070 0.009395
18859.90039 0.009483
18860.08984 0.009528
18860.26953 0.009528
18860.46094 0.009528
18860.64062 0.009528
18860.83008 0.009528
18861.00977 0.009528
18861.19922 0.009528
18861.38086 0.009528
18861.57031 0.009528
18861.75000 0.009528
18861.93945 0.009528
18862.11914 0.0096
18862.30078 0.009708
18862.49023 0.009817
18862.66992 0.009926
18862.85938 0.010035
18863.03906 0.010144
18863.23047 0.010253
18863.41016 0.010363
18863.59961 0.010471
18863.77930 0.01058
18863.97070 0.010689
18864.15039 0.01076
18864.33984 0.010822
18864.51953 0.010885
18864.71094 0.010948
18864.89062 0.011011
18865.08008 0.011074
18865.25977 0.011136
18865.44922 0.011199
18865.63086 0.011262
18865.81055 0.011325
18866.00000 0.011387
18866.17969 0.011575
18866.36914 0.011765
18866.55078 0.011952
18866.74023 0.012142
18866.91992 0.012329
18867.10938 0.012519
18867.28906 0.012706
18867.48047 0.012896
18867.66016 0.013085
18867.84961 0.013272
18868.02930 0.013453
18868.21094 0.013591
18868.40039 0.013729
18868.58984 0.013868
18868.76953 0.014006
18868.96094 0.014144
18869.14062 0.014282
18869.32031 0.01442
18869.50977 0.014558
18869.68945 0.014696
18869.88086 0.014835
18870.06055 0.014966
18870.25000 0.015086
18870.42969 0.015205
18870.61914 0.015326
18870.80078 0.015446
18870.99023 0.015565
18871.16992 0.015685
18871.35938 0.015804
18871.53906 0.015924
18871.73047 0.016045
18871.91016 0.016164
18872.09961 0.016302
18872.27930 0.016456
18872.46094 0.016611
18872.65039 0.016767
18872.83008 0.01692
18873.01953 0.017076
18873.19922 0.017229
18873.39062 0.017385
18873.57031 0.01754
18873.75977 0.017694
18873.93945 0.017849
18874.13086 0.018031
18874.31055 0.018223
18874.50000 0.018417
18874.67969 0.018609
18874.86914 0.018802
18875.05078 0.018996
18875.24023 0.019188
18875.41992 0.019382
18875.60938 0.019573
18875.78906 0.019767
18875.98047 0.019961
18876.16016 0.020121
18876.34961 0.020278
18876.52930 0.020434
18876.71094 0.02059
18876.90039 0.020746
18877.08008 0.020901
18877.26953 0.021058
18877.46094 0.021215
18877.64062 0.02137
18877.82031 0.021527
18878.00977 0.021684
18878.18945 0.021847
18878.38086 0.022011
18878.56055 0.022175
18878.75000 0.022338
18878.92969 0.022502
18879.11914 0.022664
18879.30078 0.022829
18879.49023 0.022993
18879.66992 0.023155
18879.85938 0.02332
18880.03906 0.0235
18880.23047 0.023731
18880.41016 0.023964
18880.59961 0.024198
18880.77930 0.024429
18880.97070 0.024662
18881.15039 0.024893
18881.33984 0.025127
18881.51953 0.02536
18881.71094 0.025591
18881.89062 0.025824
18882.08008 0.026063
18882.25977 0.026307
18882.44922 0.026553
18882.63086 0.026799
18882.81055 0.027043
18883.00000 0.027289
18883.18945 0.027536
18883.36914 0.027779
18883.55078 0.028026
18883.74023 0.028272
18883.91992 0.028516
18884.10938 0.02879
18884.28906 0.029085
18884.48047 0.029377
18884.66016 0.029671
18884.84961 0.029966
18885.02930 0.030257
18885.22070 0.030552
18885.40039 0.030846
18885.58984 0.031138
18885.76953 0.031432
18885.96094 0.031727
18886.14062 0.031965
18886.33008 0.03219
18886.50977 0.032415
18886.69922 0.032638
18886.88086 0.032863
18887.07031 0.033089
18887.25000 0.033311
18887.43945 0.033537
18887.61914 0.033762
18887.81055 0.033985
18887.99023 0.03421
18888.17969 0.034521
18888.35938 0.034833
18888.55078 0.035148
18888.73047 0.035463
18888.91992 0.035778
18889.09961 0.036089
18889.28906 0.036404
18889.47070 0.036719
18889.66016 0.037031
18889.83984 0.037346
18890.02930 0.037679
18890.21094 0.038114
18890.40039 0.038553
18890.58008 0.038993
18890.76953 0.039427
18890.94922 0.039867
18891.14062 0.040306
18891.32031 0.040745
18891.50977 0.04118
18891.68945 0.041619
18891.88086 0.042059
18892.06055 0.04248
18892.25000 0.04288
18892.42969 0.043279
18892.61914 0.043674
18892.80078 0.044074
18892.99023 0.044473
18893.16992 0.044872
18893.35938 0.045268
18893.53906 0.045667
18893.73047 0.046066
18893.91016 0.046461
18894.09961 0.046912
18894.27930 0.04741
18894.47070 0.047908
18894.65039 0.0484
18894.83984 0.048898
18895.01953 0.049396
18895.21094 0.049889
18895.39062 0.050387
18895.58008 0.050885
18895.75977 0.051382
18895.94922 0.051875
18896.13086 0.05247
18896.32031 0.053104
18896.50000 0.053739
18896.68945 0.054367
18896.86914 0.055002
18897.06055 0.055637
18897.24023 0.056265
18897.42969 0.056899
18897.60938 0.057534
18897.80078 0.058169
18897.98047 0.058797
18898.16992 0.059419
18898.34961 0.060039
18898.53906 0.060659
18898.72070 0.061272
18898.91016 0.061892
18899.08984 0.062512
18899.27930 0.063132
18899.46094 0.063746
18899.65039 0.064366
18899.83008 0.064986
18900.01953 0.065598
18900.19922 0.066202
18900.39062 0.066807
18900.57031 0.067411
18900.75977 0.068009
18900.93945 0.068613
18901.13086 0.069217
18901.31055 0.069821
18901.50000 0.070419
18901.67969 0.071023
18901.86914 0.071627
18902.05078 0.072232
18902.24023 0.072833
18902.41992 0.073441
18902.60938 0.074048
18902.78906 0.074656
18902.98047 0.075257
18903.16016 0.075864
18903.34961 0.076472
18903.52930 0.077079
18903.72070 0.077686
18903.90039 0.078287
18904.08984 0.078874
18904.26953 0.079438
18904.46094 0.080002
18904.64062 0.08056
18904.83008 0.081123
18905.00977 0.081687
18905.19922 0.082251
18905.38086 0.082809
18905.57031 0.083372
18905.75000 0.083936
18905.93945 0.0845
18906.11914 0.085163
18906.31055 0.085884
18906.49023 0.086606
18906.67969 0.087328
18906.86914 0.08805
18907.05078 0.088764
18907.23047 0.089486
18907.41992 0.090208
18907.60938 0.090929
18907.78906 0.091644
18907.97070 0.092365
18908.16016 0.093065
18908.34961 0.093761
18908.52930 0.094458
18908.71094 0.095147
18908.90039 0.095843
18909.08984 0.09654
18909.26953 0.097236
18909.46094 0.097932
18909.64062 0.098621
18909.83008 0.099317
18910.00977 0.100028
18910.19922 0.100951
18910.38086 0.101874
18910.57031 0.102788
18910.75000 0.103711
18910.93945 0.104634
18911.11914 0.105557
18911.31055 0.10648
18911.49023 0.107393
18911.67969 0.108316
18911.85938 0.109239
18912.05078 0.110152
18912.23047 0.111037
18912.41992 0.111912
18912.59961 0.112797
18912.78906 0.113682
18912.97070 0.114566
18913.16016 0.115451
18913.33984 0.116326
18913.52930 0.117211
18913.71094 0.118096
18913.90039 0.11898
18914.08984 0.11992
18914.26953 0.120915
18914.46094 0.12192
18914.64062 0.122925
18914.83008 0.12393
18915.00977 0.124935
18915.19922 0.125941
18915.38086 0.126935
18915.57031 0.12794
18915.75000 0.128945
18915.93945 0.12995
18916.11914 0.13097
18916.31055 0.131986
18916.49023 0.133012
18916.67969 0.134039
18916.85938 0.135066
18917.05078 0.136093
18917.23047 0.13712
18917.41992 0.138135
18917.59961 0.139162
18917.78906 0.140189
18917.97070 0.141216
18918.16016 0.142199
18918.34961 0.143176
18918.52930 0.144142
18918.71094 0.145118
18918.90039 0.146095
18919.08984 0.147071
18919.26953 0.148047
18919.46094 0.149024
18919.64062 0.14999
18919.83008 0.150967
18920.00977 0.15194
18920.19922 0.152872
18920.38086 0.153804
18920.57031 0.154736
18920.75000 0.155668
18920.93945 0.15659
18921.11914 0.157522
18921.31055 0.158454
18921.49023 0.159386
18921.67969 0.160318
18921.86914 0.16125
18922.05078 0.16211
18922.23047 0.162804
18922.41992 0.163498
18922.60938 0.164192
18922.78906 0.164887
18922.98047 0.165581
18923.16016 0.166275
18923.34961 0.166962
18923.52930 0.167656
18923.72070 0.16835
18923.90039 0.169044
18924.08984 0.169849
18924.26953 0.170776
18924.46094 0.171703
18924.64062 0.17263
18924.83008 0.173548
18925.00977 0.174475
18925.19922 0.175402
18925.38086 0.17633
18925.57031 0.177257
18925.75977 0.178184
18925.93945 0.179111
18926.11914 0.17992
18926.31055 0.180686
18926.50000 0.181453
18926.67969 0.182219
18926.86914 0.182985
18927.05078 0.183752
18927.24023 0.184518
18927.41992 0.185284
18927.60938 0.186043
18927.78906 0.186809
18927.98047 0.187575
18928.16016 0.188396
18928.34961 0.189223
18928.53906 0.190051
18928.72070 0.190878
18928.91016 0.191706
18929.08984 0.192533
18929.27930 0.193352
18929.46094 0.194179
18929.65039 0.195007
18929.83008 0.195834
18930.01953 0.196654
18930.19922 0.197393
18930.39062 0.198132
18930.57031 0.198871
18930.75977 0.19961
18930.94922 0.200349
18931.13086 0.201081
18931.31055 0.20182
18931.50000 0.202559
18931.68945 0.203298
18931.86914 0.204037
18932.06055 0.204785
18932.24023 0.20555
18932.42969 0.206316
18932.60938 0.207082
18932.80078 0.207848
18932.98047 0.208605
18933.16992 0.209371
18933.34961 0.210137
18933.53906 0.210903
18933.72070 0.211669
18933.91016 0.212434
18934.09961 0.213113
18934.27930 0.213709
18934.47070 0.214305
18934.65039 0.2149
18934.83984 0.215496
18935.01953 0.216086
18935.21094 0.216682
18935.39062 0.217278
18935.58008 0.217874
18935.75977 0.21847
18935.94922 0.219066
18936.13086 0.219587
18936.32031 0.220082
18936.50977 0.220576
18936.68945 0.221069
18936.88086 0.221563
18937.06055 0.222057
18937.25000 0.222551
18937.42969 0.223045
18937.61914 0.223534
18937.80078 0.224028
18937.99023 0.224522
18938.16992 0.224915
18938.35938 0.225302
18938.53906 0.225689
18938.73047 0.226076
18938.91992 0.226463
18939.09961 0.22685
18939.28906 0.227237
18939.47070 0.227623
18939.66016 0.22801
18939.83984 0.228397
18940.02930 0.228773
18940.21094 0.229093
18940.40039 0.229412
18940.58008 0.229728
18940.76953 0.230047
18940.96094 0.230366
18941.14062 0.230685
18941.33008 0.231004
18941.50977 0.231324
18941.69922 0.231643
18941.88086 0.231962
18942.07031 0.232278
18942.25000 0.232588
18942.43945 0.232898
18942.61914 0.233208
18942.81055 0.233518
18943.00000 0.233828
18943.17969 0.234138
18943.36914 0.234448
18943.55078 0.234758
18943.74023 0.235068
18943.91992 0.235378
18944.10938 0.235649
18944.28906 0.235893
18944.48047 0.236138
18944.66992 0.236382
18944.84961 0.236624
18945.03906 0.236868
18945.22070 0.237112
18945.41016 0.237357
18945.58984 0.237601
18945.77930 0.237845
18945.96094 0.23809
18946.15039 0.238231
18946.33008 0.238347
18946.51953 0.238462
18946.71094 0.238578
18946.89062 0.238693
18947.08008 0.238809
18947.25977 0.238924
18947.44922 0.23904
18947.63086 0.239155
18947.82031 0.239271
18948.00000 0.239388
18948.18945 0.239583
18948.38086 0.239777
18948.56055 0.239972
18948.75000 0.240166
18948.92969 0.240361
18949.11914 0.240555
18949.30078 0.24075
18949.49023 0.240945
18949.66992 0.241139
18949.85938 0.241334
18950.03906 0.241486
18950.23047 0.241508
18950.41992 0.241529
18950.59961 0.241551
18950.78906 0.241572
18950.97070 0.241593
18951.16016 0.241615
18951.33984 0.241636
18951.52930 0.241658
18951.71094 0.241679
18951.90039 0.241701
18952.08984 0.241759
18952.26953 0.241859
18952.46094 0.241959
18952.64062 0.24206
18952.83008 0.24216
18953.00977 0.24226
18953.19922 0.24236
18953.38086 0.24246
18953.57031 0.242561
18953.75977 0.242661
18953.93945 0.242761
18954.13086 0.242789
18954.31055 0.242783
18954.50000 0.242777
18954.67969 0.24277
18954.86914 0.242764
18955.05078 0.242758
18955.24023 0.242752
18955.42969 0.242746
18955.60938 0.24274
18955.80078 0.242734
18955.98047 0.242728
18956.16992 0.242755
18956.34961 0.242785
18956.53906 0.242815
18956.72070 0.242845
18956.91016 0.242875
18957.09961 0.242906
18957.27930 0.242936
18957.47070 0.242966
18957.65039 0.242996
18957.83984 0.243027
18958.02930 0.243052
18958.21094 0.24304
18958.40039 0.243029
18958.58008 0.243018
18958.76953 0.243007
18958.94922 0.242996
18959.14062 0.242985
18959.32031 0.242974
18959.50977 0.242962
18959.69922 0.242951
18959.88086 0.24294
18960.07031 0.242932
18960.25000 0.242929
18960.43945 0.242926
18960.61914 0.242923
18960.81055 0.24292
18960.99023 0.242916
18961.17969 0.242913
18961.36914 0.24291
18961.55078 0.242907
18961.74023 0.242904
18961.91992 0.242901
18962.10938 0.242885
18962.28906 0.24286
18962.48047 0.242834
18962.66992 0.242809
18962.84961 0.242783
18963.03906 0.242757
18963.22070 0.242732
18963.41016 0.242706
18963.58984 0.242681
18963.77930 0.242655
18963.96094 0.24263
18964.15039 0.242603
18964.33984 0.242577
18964.51953 0.24255
18964.71094 0.242523
18964.89062 0.242496
18965.08008 0.242469
18965.26953 0.242442
18965.44922 0.242416
18965.64062 0.242389
18965.82031 0.242362
18966.00977 0.242337
18966.18945 0.242369
18966.38086 0.2424
18966.56055 0.242432
18966.75000 0.242464
18966.93945 0.242495
18967.11914 0.242527
18967.31055 0.242558
18967.49023 0.24259
18967.67969 0.242622
18967.86914 0.242653
18968.05078 0.242654
18968.24023 0.242571
18968.41992 0.242489
18968.60938 0.242406
18968.78906 0.242324
18968.98047 0.242241
18969.16016 0.242159
18969.34961 0.242076
18969.53906 0.241994
18969.72070 0.241911
18969.91016 0.241828
18970.08984 0.24177
18970.27930 0.241737
18970.46094 0.241704
18970.65039 0.241671
18970.83984 0.241637
18971.01953 0.241604
18971.21094 0.241571
18971.39062 0.241538
18971.58008 0.241504
18971.76953 0.241471
18971.94922 0.241437
18972.14062 0.241446
18972.32031 0.241469
18972.50977 0.241492
18972.68945 0.241515
18972.88086 0.241539
18973.06055 0.241562
18973.25000 0.241585
18973.43945 0.241609
18973.61914 0.241632
18973.81055 0.241655
18973.99023 0.241678
18974.17969 0.241651
18974.36914 0.241621
18974.55078 0.241592
18974.74023 0.241563
18974.91992 0.241533
18975.10938 0.241504
18975.28906 0.241474
18975.48047 0.241445
18975.66992 0.241416
18975.84961 0.241386
18976.03906 0.241367
18976.22070 0.241387
18976.41016 0.241407
18976.59961 0.241427
18976.77930 0.241447
18976.97070 0.241467
18977.15039 0.241487
18977.33984 0.241507
18977.51953 0.241527
18977.71094 0.241546
18977.89062 0.241566
18978.08008 0.24152
18978.26953 0.241389
18978.44922 0.241258
18978.64062 0.241127
18978.82031 0.240996
18979.00977 0.240865
18979.19922 0.240734
18979.38086 0.240602
18979.57031 0.240471
18979.75000 0.24034
18979.93945 0.240209
18980.13086 0.240254
18980.31055 0.240383
18980.50000 0.240513
18980.67969 0.240645
18980.86914 0.240775
18981.05078 0.240904
18981.24023 0.241034
18981.42969 0.241164
18981.60938 0.241294
18981.80078 0.241425
18981.98047 0.241555
18982.16992 0.241525
18982.35938 0.241479
18982.53906 0.241434
18982.73047 0.241389
18982.91016 0.241343
18983.09961 0.241298
18983.28906 0.241252
18983.47070 0.241207
18983.66016 0.241162
18983.83984 0.241116
18984.02930 0.241084
18984.21094 0.241128
18984.40039 0.241172
18984.58984 0.241215
18984.76953 0.241259
18984.96094 0.241302
18985.14062 0.241346
18985.33008 0.24139
18985.51953 0.241433
18985.69922 0.241477
18985.89062 0.24152
18986.07031 0.241536
18986.25977 0.241509
18986.44922 0.241482
18986.63086 0.241455
18986.82031 0.241428
18987.00000 0.241401
18987.18945 0.241374
18987.38086 0.241347
18987.56055 0.24132
18987.75000 0.241293
18987.92969 0.241266
18988.11914 0.241258
18988.30078 0.241261
18988.49023 0.241264
18988.67969 0.241267
18988.85938 0.241269
18989.05078 0.241272
18989.23047 0.241275
18989.41992 0.241278
18989.60938 0.241281
18989.78906 0.241284
18989.98047 0.241286
18990.16016 0.241306
18990.34961 0.241329
18990.53906 0.241352
18990.72070 0.241374
18990.91016 0.241397
18991.08984 0.241419
18991.27930 0.241442
18991.46094 0.241464
18991.65039 0.241487
18991.83984 0.241509
18992.01953 0.241526
18992.21094 0.241499
18992.39062 0.241472
18992.58008 0.241445
18992.76953 0.241418
18992.94922 0.241391
18993.14062 0.241364
18993.32031 0.241337
18993.50977 0.24131
18993.69922 0.241283
18993.88086 0.241256
18994.07031 0.241326
18994.25000 0.241565
18994.43945 0.241804
18994.63086 0.242043
18994.81055 0.242284
18995.00000 0.242523
18995.17969 0.242762
18995.36914 0.243
18995.55078 0.243239
18995.74023 0.24348
18995.92969 0.243719
18996.10938 0.243766
18996.30078 0.243691
18996.49023 0.243616
18996.66992 0.243541
18996.85938 0.243466
18997.03906 0.243391
18997.23047 0.243316
18997.41992 0.24324
18997.59961 0.243165
18997.78906 0.24309
18997.97070 0.243015
18998.16016 0.243028
18998.34961 0.243056
18998.52930 0.243084
18998.72070 0.243112
18998.90039 0.24314
18999.08984 0.243168
18999.27930 0.243196
18999.46094 0.243224
18999.65039 0.243252
18999.83008 0.24328
19000.01953 0.243309
19000.21094 0.243342
19000.39062 0.243376
19000.58008 0.24341
19000.75977 0.243444
19000.94922 0.243477
19001.13086 0.243511
19001.32031 0.243545
19001.50977 0.243578
19001.68945 0.243612
19001.88086 0.243645
19002.07031 0.243702
19002.25000 0.2438
19002.43945 0.243897
19002.61914 0.243995
19002.81055 0.244093
19003.00000 0.244191
19003.17969 0.244288
19003.36914 0.244387
19003.55078 0.244484
19003.74023 0.244582
19003.92969 0.244679
19004.10938 0.244683
19004.30078 0.244625
19004.48047 0.244567
19004.66992 0.244509
19004.85938 0.24445
19005.03906 0.244392
19005.23047 0.244334
19005.41016 0.244275
19005.59961 0.244217
19005.78906 0.244159
19005.97070 0.2441
19006.16016 0.244107
19006.34961 0.244124
19006.52930 0.244142
19006.72070 0.244159
19006.90039 0.244176
19007.08984 0.244194
19007.27930 0.244211
19007.46094 0.244228
19007.65039 0.244246
19007.83008 0.244263
19008.01953 0.244275
19008.21094 0.244246
19008.39062 0.244217
19008.58008 0.244188
19008.75977 0.244158
19008.94922 0.244129
19009.14062 0.2441
19009.32031 0.24407
19009.50977 0.244041
19009.69922 0.244012
19009.88086 0.243983
19010.07031 0.24395
19010.25000 0.243911
19010.43945 0.243872
19010.61914 0.243833
19010.81055 0.243794
19011.00000 0.243755
19011.17969 0.243716
19011.36914 0.243677
19011.56055 0.243638
19011.74023 0.243599
19011.92969 0.24356
19012.11914 0.243543
19012.30078 0.243541
19012.49023 0.243539
19012.66992 0.243536
19012.85938 0.243534
19013.03906 0.243532
19013.23047 0.24353
19013.41992 0.243527
19013.59961 0.243525
19013.78906 0.243523
19013.98047 0.24352
19014.16016 0.243458
19014.34961 0.243387
19014.53906 0.243316
19014.72070 0.243245
19014.91016 0.243174
19015.08984 0.243103
19015.27930 0.243033
19015.46094 0.242962
19015.65039 0.24289
19015.83984 0.24282
19016.01953 0.242759
19016.21094 0.24277
19016.40039 0.242781
19016.58008 0.242792
19016.76953 0.242803
19016.96094 0.242814
19017.14062 0.242825
19017.33008 0.242836
19017.50977 0.242847
19017.69922 0.242858
19017.89062 0.242869
19018.07031 0.242829
19018.25977 0.242707
19018.44922 0.242585
19018.63086 0.242464
19018.82031 0.242343
19019.00000 0.242221
19019.18945 0.2421
19019.36914 0.241979
19019.56055 0.241856
19019.75000 0.241735
19019.92969 0.241614
19020.11914 0.241608
19020.31055 0.241664
19020.49023 0.241721
19020.67969 0.241777
19020.86914 0.241834
19021.05078 0.241891
19021.24023 0.241947
19021.41992 0.242003
19021.60938 0.24206
19021.80078 0.242117
19021.98047 0.242173
19022.16992 0.242152
19022.35938 0.242123
19022.53906 0.242094
19022.73047 0.242065
19022.91016 0.242036
19023.09961 0.242007
19023.28906 0.241978
19023.47070 0.241949
19023.66016 0.241919
19023.84961 0.24189
19024.02930 0.241867
19024.22070 0.241868
19024.40039 0.24187
19024.58984 0.241872
19024.77930 0.241874
19024.96094 0.241876
19025.15039 0.241878
19025.33984 0.24188
19025.51953 0.241882
19025.71094 0.241884
19025.89062 0.241886
19026.08008 0.241874
19026.26953 0.241842
19026.44922 0.241811
19026.64062 0.241779
19026.83008 0.241748
19027.00977 0.241716
19027.19922 0.241685
19027.38086 0.241653
19027.57031 0.241622
19027.75977 0.24159
19027.93945 0.241559
19028.13086 0.241506
19028.32031 0.241445
19028.50000 0.241383
19028.68945 0.241321
19028.86914 0.24126
19029.06055 0.241199
19029.25000 0.241137
19029.42969 0.241076
19029.61914 0.241014
19029.81055 0.240952
19029.99023 0.240891
19030.17969 0.240896
19030.36914 0.240904
19030.55078 0.240912
19030.74023 0.24092
19030.91992 0.240928
19031.10938 0.240936
19031.30078 0.240944
19031.48047 0.240952
19031.66992 0.24096
19031.85938 0.240968
19032.03906 0.24096
19032.23047 0.240901
19032.41992 0.240841
19032.59961 0.240782
19032.78906 0.240722
19032.97070 0.240662
19033.16016 0.240602
19033.34961 0.240542
19033.52930 0.240483
19033.72070 0.240423
19033.91016 0.240363
19034.08984 0.240343
19034.27930 0.240364
19034.46094 0.240384
19034.65039 0.240404
19034.83984 0.240425
19035.01953 0.240445
19035.21094 0.240465
19035.40039 0.240486
19035.58008 0.240506
19035.76953 0.240527
19035.96094 0.240547
19036.14062 0.24046
19036.33008 0.24034
19036.51953 0.240219
19036.69922 0.2401
19036.89062 0.239979
19037.07031 0.239859
19037.25977 0.239738
19037.44922 0.239619
19037.63086 0.239499
19037.82031 0.239378
19038.00977 0.239258
19038.18945 0.239135
19038.38086 0.239014
19038.57031 0.238891
19038.75000 0.238769
19038.93945 0.238648
19039.11914 0.238525
19039.31055 0.238403
19039.50000 0.23828
19039.67969 0.238159
19039.86914 0.238036
19040.06055 0.23796
19040.24023 0.237989
19040.42969 0.238018
19040.61914 0.238046
19040.80078 0.238075
19040.99023 0.238104
19041.17969 0.238133
19041.35938 0.238162
19041.55078 0.238191
19041.73047 0.23822
19041.91992 0.238249
19042.10938 0.238154
19042.28906 0.237967
19042.48047 0.237782
19042.66992 0.237597
19042.84961 0.237411
19043.03906 0.237226
19043.23047 0.237039
19043.41016 0.236854
19043.59961 0.236667
19043.78906 0.236482
19043.97070 0.236295
19044.16016 0.236274
19044.34961 0.236281
19044.52930 0.236288
19044.72070 0.236295
19044.90039 0.236302
19045.08984 0.23631
19045.27930 0.236317
19045.46094 0.236324
19045.65039 0.236331
19045.83984 0.236338
19046.01953 0.236334
19046.21094 0.23625
19046.40039 0.236166
19046.58008 0.236083
19046.76953 0.235999
19046.96094 0.235915
19047.14062 0.235831
19047.33008 0.235748
19047.51953 0.235664
19047.69922 0.23558
19047.89062 0.235496
19048.07031 0.235388
19048.25977 0.23524
19048.44922 0.235093
19048.63086 0.234945
19048.82031 0.234798
19049.00977 0.23465
19049.18945 0.234504
19049.38086 0.234355
19049.57031 0.234209
19049.75000 0.234061
19049.93945 0.233914
19050.13086 0.233749
19050.31055 0.233573
19050.50000 0.2334
19050.68945 0.233224
19050.86914 0.23305
19051.06055 0.232874
19051.24023 0.2327
19051.42969 0.232525
19051.61914 0.232351
19051.80078 0.232175
19051.99023 0.232001
19052.17969 0.231879
19052.36914 0.231761
19052.55078 0.231643
19052.74023 0.231525
19052.91992 0.231407
19053.10938 0.231289
19053.30078 0.231171
19053.48047 0.231052
19053.66992 0.230935
19053.85938 0.230816
19054.03906 0.230684
19054.23047 0.230503
19054.41992 0.230323
19054.59961 0.230142
19054.78906 0.229962
19054.98047 0.229781
19055.16016 0.229601
19055.34961 0.229419
19055.53906 0.22924
19055.72070 0.229058
19055.91016 0.228879
19056.09961 0.228744
19056.27930 0.228655
19056.47070 0.228565
19056.65039 0.228476
19056.83984 0.228386
19057.02930 0.228297
19057.21094 0.228207
19057.40039 0.228117
19057.58984 0.228028
19057.77930 0.227938
19057.96094 0.227849
19058.15039 0.227568
19058.33008 0.227241
19058.51953 0.22691
19058.71094 0.226583
19058.89062 0.226252
19059.08008 0.225925
19059.26953 0.225595
19059.44922 0.225267
19059.64062 0.224937
19059.83008 0.224606
19060.00977 0.224284
19060.19922 0.224024
19060.39062 0.223766
19060.57031 0.223506
19060.75977 0.223248
19060.94922 0.222988
19061.13086 0.222731
19061.32031 0.22247
19061.50977 0.222213
19061.68945 0.221952
19061.88086 0.221692
19062.07031 0.221367
19062.25000 0.220916
19062.43945 0.220469
19062.63086 0.220018
19062.81055 0.219572
19063.00000 0.219121
19063.18945 0.218674
19063.36914 0.218223
19063.56055 0.217772
19063.75000 0.217325
19063.92969 0.216874
19064.11914 0.216492
19064.31055 0.216144
19064.49023 0.215799
19064.67969 0.21545
19064.86914 0.215102
19065.05078 0.214757
19065.24023 0.214408
19065.42969 0.214063
19065.60938 0.213714
19065.80078 0.213369
19065.99023 0.213021
19066.16992 0.212656
19066.35938 0.212295
19066.55078 0.211929
19066.73047 0.211568
19066.91992 0.211202
19067.10938 0.21084
19067.28906 0.210475
19067.48047 0.21011
19067.66992 0.209748
19067.84961 0.209382
19068.03906 0.209003
19068.23047 0.208553
19068.41016 0.208103
19068.59961 0.207658
19068.78906 0.207208
19068.97070 0.206763
19069.16016 0.206313
19069.34961 0.205868
19069.52930 0.205418
19069.72070 0.204968
19069.91016 0.204523
19070.08984 0.204054
19070.27930 0.203571
19070.47070 0.203084
19070.65039 0.202596
19070.83984 0.202113
19071.02930 0.201625
19071.21094 0.201142
19071.40039 0.200655
19071.58984 0.200167
19071.76953 0.199684
19071.96094 0.199196
19072.15039 0.19873
19072.33008 0.198264
19072.51953 0.197798
19072.71094 0.197337
19072.89062 0.196871
19073.08008 0.196405
19073.26953 0.195944
19073.46094 0.195478
19073.64062 0.195017
19073.83008 0.194551
19074.01953 0.194076
19074.19922 0.193506
19074.39062 0.192931
19074.57031 0.192361
19074.75977 0.191786
19074.94922 0.19121
19075.13086 0.190641
19075.32031 0.190065
19075.50977 0.18949
19075.69922 0.18892
19075.88086 0.188345
19076.07031 0.187749
19076.25977 0.187102
19076.43945 0.186455
19076.63086 0.185815
19076.82031 0.185168
19077.00000 0.184521
19077.18945 0.18388
19077.38086 0.183233
19077.56055 0.182593
19077.75000 0.181946
19077.93945 0.181299
19078.11914 0.180635
19078.31055 0.179951
19078.50000 0.179268
19078.67969 0.178593
19078.86914 0.177909
19079.06055 0.177227
19079.24023 0.17655
19079.42969 0.175867
19079.61914 0.175191
19079.80078 0.174508
19079.99023 0.173825
19080.17969 0.173091
19080.36914 0.172346
19080.55078 0.171601
19080.74023 0.170864
19080.92969 0.170119
19081.10938 0.169374
19081.30078 0.168637
19081.49023 0.167892
19081.66992 0.167147
19081.85938 0.16641
19082.05078 0.16566
19082.23047 0.164895
19082.41992 0.164138
19082.60938 0.163373
19082.78906 0.162608
19082.98047 0.161851
19083.16992 0.161086
19083.35938 0.160321
19083.53906 0.159564
19083.73047 0.158798
19083.91992 0.158033
19084.09961 0.157212
19084.28906 0.15633
19084.48047 0.155447
19084.66016 0.154573
19084.84961 0.15369
19085.03906 0.152807
19085.22070 0.151933
19085.41016 0.15105
19085.59961 0.150167
19085.77930 0.149293
19085.97070 0.14841
19086.16016 0.14765
19086.33984 0.146921
19086.52930 0.146183
19086.72070 0.145446
19086.90039 0.144716
19087.08984 0.143979
19087.27930 0.143242
19087.46094 0.142512
19087.65039 0.141775
19087.83984 0.141037
19088.02930 0.140297
19088.21094 0.13948
19088.40039 0.138662
19088.58984 0.137853
19088.76953 0.137036
19088.96094 0.136219
19089.15039 0.135401
19089.33008 0.134592
19089.51953 0.133775
19089.71094 0.132958
19089.89062 0.132149
19090.08008 0.131404
19090.26953 0.130753
19090.46094 0.130108
19090.64062 0.129457
19090.83008 0.128806
19091.01953 0.128161
19091.19922 0.12751
19091.39062 0.126859
19091.58008 0.126207
19091.75977 0.125563
19091.94922 0.124911
19092.14062 0.124108
19092.32031 0.123261
19092.50977 0.122405
19092.69922 0.121548
19092.89062 0.120692
19093.07031 0.119844
19093.25977 0.118988
19093.44922 0.118132
19093.63086 0.117284
19093.82031 0.116428
19094.00977 0.115576
19094.19922 0.114849
19094.38086 0.11413
19094.57031 0.113403
19094.75977 0.112675
19094.93945 0.111956
19095.13086 0.111228
19095.32031 0.110501
19095.50000 0.109774
19095.68945 0.109054
19095.88086 0.108327
19096.06055 0.107577
19096.25000 0.106793
19096.43945 0.106
19096.63086 0.105207
19096.81055 0.104414
19097.00000 0.103629
19097.18945 0.102836
19097.36914 0.102043
19097.56055 0.101251
19097.75000 0.100466
19097.92969 0.099673
19098.11914 0.098984
19098.31055 0.09836
19098.49023 0.097729
19098.67969 0.097098
19098.86914 0.096467
19099.05078 0.095842
19099.24023 0.095211
19099.42969 0.09458
19099.61914 0.093949
19099.80078 0.093324
19099.99023 0.092693
19100.17969 0.092034
19100.36914 0.091373
19100.55078 0.090719
19100.74023 0.090058
19100.92969 0.089397
19101.10938 0.088737
19101.30078 0.088083
19101.49023 0.087422
19101.66992 0.086761
19101.85938 0.0861
19102.05078 0.085453
19102.23047 0.084823
19102.41992 0.084192
19102.60938 0.083561
19102.78906 0.082936
19102.98047 0.082306
19103.16992 0.081675
19103.35938 0.081044
19103.53906 0.080419
19103.73047 0.079788
19103.91992 0.079157
19104.10938 0.078577
19104.28906 0.078037
19104.48047 0.077503
19104.66992 0.076962
19104.84961 0.076422
19105.03906 0.075882
19105.23047 0.075347
19105.41016 0.074807
19105.59961 0.074267
19105.78906 0.073727
19105.98047 0.073186
19106.16016 0.072581
19106.34961 0.071958
19106.53906 0.071336
19106.72070 0.070713
19106.91016 0.070097
19107.09961 0.069474
19107.28906 0.068852
19107.47070 0.068229
19107.66016 0.067606
19107.84961 0.06699
19108.02930 0.066389
19108.22070 0.065887
19108.41016 0.065385
19108.58984 0.064889
19108.77930 0.064387
19108.97070 0.063886
19109.16016 0.063384
19109.33984 0.062882
19109.52930 0.062386
19109.72070 0.061884
19109.90039 0.061382
19110.08984 0.060805
19110.27930 0.060149
19110.46094 0.0595
19110.65039 0.058844
19110.83984 0.058188
19111.02930 0.057531
19111.21094 0.056875
19111.40039 0.056226
19111.58984 0.055569
19111.77930 0.054913
19111.96094 0.054257
19112.15039 0.05375
19112.33984 0.053284
19112.51953 0.052814
19112.71094 0.052343
19112.90039 0.051872
19113.08984 0.051402
19113.26953 0.050936
19113.46094 0.050466
19113.65039 0.049995
19113.83008 0.049524
19114.01953 0.049063
19114.21094 0.048671
19114.39062 0.048284
19114.58008 0.047892
19114.76953 0.047501
19114.96094 0.047109
19115.14062 0.046717
19115.33008 0.04633
19115.51953 0.045938
19115.71094 0.045547
19115.89062 0.045155
19116.08008 0.044789
19116.26953 0.044458
19116.44922 0.044129
19116.64062 0.043798
19116.83008 0.043466
19117.01953 0.043135
19117.19922 0.042803
19117.39062 0.042472
19117.58008 0.042144
19117.75977 0.041812
19117.94922 0.04148
19118.14062 0.041178
19118.33008 0.040886
19118.50977 0.040594
19118.69922 0.040305
19118.89062 0.040013
19119.07031 0.039721
19119.25977 0.03943
19119.44922 0.039138
19119.64062 0.038846
19119.82031 0.038557
19120.00977 0.038269
19120.19922 0.038057
19120.38086 0.037844
19120.57031 0.037632
19120.75977 0.03742
19120.94922 0.037208
19121.13086 0.036998
19121.32031 0.036786
19121.50977 0.036573
19121.69922 0.036361
19121.88086 0.036149
19122.07031 0.035887
19122.25977 0.035541
19122.43945 0.035199
19122.63086 0.034853
19122.82031 0.034508
19123.00977 0.034162
19123.18945 0.033816
19123.38086 0.033471
19123.57031 0.033125
19123.75000 0.032783
19123.93945 0.032437
19124.13086 0.032135
19124.32031 0.031854
19124.50000 0.031572
19124.68945 0.03129
19124.88086 0.031008
19125.06055 0.030729
19125.25000 0.030447
19125.43945 0.030165
19125.63086 0.029883
19125.81055 0.029601
19126.00000 0.029319
19126.18945 0.029033
19126.38086 0.028746
19126.56055 0.028463
19126.75000 0.028177
19126.93945 0.027891
19127.13086 0.027604
19127.31055 0.027318
19127.50000 0.027032
19127.68945 0.026745
19127.86914 0.026459
19128.06055 0.026213
19128.25000 0.02605
19128.43945 0.025885
19128.61914 0.025719
19128.81055 0.025554
19129.00000 0.025389
19129.18945 0.025224
19129.36914 0.025059
19129.56055 0.024894
19129.75000 0.024728
19129.92969 0.024565
19130.11914 0.024321
19130.31055 0.024033
19130.50000 0.023745
19130.67969 0.023458
19130.86914 0.02317
19131.06055 0.022882
19131.25000 0.022595
19131.42969 0.022307
19131.61914 0.022019
19131.81055 0.021735
19131.99023 0.021447
19132.17969 0.021299
19132.36914 0.021156
19132.56055 0.021013
19132.74023 0.02087
19132.92969 0.020726
19133.11914 0.020583
19133.31055 0.02044
19133.49023 0.020297
19133.67969 0.020154
19133.86914 0.020012
19134.05078 0.019857
19134.24023 0.019674
19134.42969 0.019491
19134.61914 0.019308
19134.80078 0.019125
19134.99023 0.018942
19135.17969 0.018759
19135.36914 0.018576
19135.55078 0.018393
19135.74023 0.01821
19135.92969 0.018027
19136.11914 0.017911
19136.30078 0.017835
19136.49023 0.017759
19136.67969 0.017682
19136.86914 0.017606
19137.05078 0.01753
19137.24023 0.017453
19137.42969 0.017377
19137.61914 0.017301
19137.80078 0.017224
19137.99023 0.017148
19138.17969 0.017036
19138.36914 0.016922
19138.55078 0.016807
19138.74023 0.016693
19138.92969 0.016579
19139.10938 0.016466
19139.30078 0.016351
19139.49023 0.016237
19139.67969 0.016123
19139.85938 0.016009
19140.05078 0.01587
19140.24023 0.015667
19140.42969 0.015464
19140.60938 0.015261
19140.80078 0.015058
19140.99023 0.014855
19141.17969 0.014652
19141.35938 0.014449
19141.55078 0.014246
19141.74023 0.014043
19141.92969 0.01384
19142.10938 0.01371
19142.30078 0.013627
19142.49023 0.013544
19142.67969 0.013461
19142.85938 0.013379
19143.05078 0.013296
19143.24023 0.013214
19143.41992 0.013131
19143.60938 0.013048
19143.80078 0.012965
19143.99023 0.012882
19144.16992 0.012844
19144.35938 0.01281
19144.55078 0.012776
19144.74023 0.012741
19144.91992 0.012707
19145.10938 0.012673
19145.30078 0.012638
19145.49023 0.012604
19145.66992 0.01257
19145.85938 0.012535
19146.05078 0.012485
19146.24023 0.012389
19146.41992 0.012294
19146.60938 0.012198
19146.80078 0.012102
19146.99023 0.012006
19147.16992 0.011911
19147.35938 0.011815
19147.55078 0.011719
19147.74023 0.011624
19147.91992 0.011528
19148.10938 0.011406
19148.30078 0.011265
19148.49023 0.011125
19148.66992 0.010984
19148.85938 0.010844
19149.05078 0.010704
19149.24023 0.010563
19149.41992 0.010423
19149.60938 0.010282
19149.80078 0.010142
19149.99023 0.010002
19150.16992 0.009926
19150.35938 0.009856
19150.55078 0.009786
19150.74023 0.009716
19150.91992 0.009646
19151.10938 0.009575
19151.30078 0.009505
19151.49023 0.009435
19151.66992 0.009365
19151.85938 0.009295
19152.05078 0.009229
19152.24023 0.009177
19152.41992 0.009125
19152.60938 0.009073
19152.80078 0.009021
19152.99023 0.008969
19153.16992 0.008917
19153.35938 0.008865
19153.55078 0.008813
19153.74023 0.008761
19153.91992 0.008709
19154.10938 0.008667
19154.30078 0.008631
19154.49023 0.008595
19154.66992 0.008559
19154.85938 0.008523
19155.05078 0.008487
19155.24023 0.00845
19155.41992 0.008414
19155.60938 0.008378
19155.80078 0.008342
19155.99023 0.008306
19156.16992 0.008174
19156.35938 0.008034
19156.55078 0.007894
19156.74023 0.007754
19156.91992 0.007614
19157.10938 0.007474
19157.30078 0.007334
19157.49023 0.007194
19157.66992 0.007054
19157.85938 0.006914
19158.05078 0.006795
19158.24023 0.006735
19158.41992 0.006675
19158.60938 0.006615
19158.80078 0.006555
19158.99023 0.006495
19159.17969 0.006435
19159.35938 0.006375
19159.55078 0.006315
19159.74023 0.006255
19159.92969 0.006195
19160.10938 0.006162
19160.30078 0.006145
19160.49023 0.006129
19160.67969 0.006113
19160.85938 0.006096
19161.05078 0.00608
19161.24023 0.006064
19161.42969 0.006047
19161.60938 0.006031
19161.80078 0.006015
19161.99023 0.005998
19162.17969 0.006002
19162.35938 0.006007
19162.55078 0.006012
19162.74023 0.006017
19162.92969 0.006022
19163.11914 0.006027
19163.30078 0.006032
19163.49023 0.006037
19163.67969 0.006042
19163.86914 0.006046
19164.05078 0.006038
19164.24023 0.005996
19164.42969 0.005955
19164.61914 0.005913
19164.80078 0.005871
19164.99023 0.005829
19165.17969 0.005787
19165.36914 0.005745
19165.55078 0.005703
19165.74023 0.005662
19165.92969 0.00562
19166.11914 0.005569
19166.30078 0.005512
19166.49023 0.005456
19166.67969 0.0054
19166.86914 0.005343
19167.05078 0.005287
19167.24023 0.00523
19167.42969 0.005174
19167.61914 0.005117
19167.81055 0.00506
19167.99023 0.005004
19168.17969 0.004984
19168.36914 0.004966
19168.56055 0.004948
19168.74023 0.00493
19168.92969 0.004911
19169.11914 0.004893
19169.31055 0.004875
19169.49023 0.004857
19169.67969 0.004838
19169.86914 0.00482
19170.06055 0.00481
19170.25000 0.004819
19170.42969 0.004827
19170.61914 0.004836
19170.81055 0.004844
19171.00000 0.004852
19171.17969 0.004861
19171.36914 0.004869
19171.56055 0.004878
19171.75000 0.004886
19171.93945 0.004895
19172.11914 0.004881
19172.31055 0.004855
19172.50000 0.00483
19172.68945 0.004804
19172.86914 0.004778
19173.06055 0.004753
19173.25000 0.004727
19173.43945 0.004701
19173.61914 0.004675
19173.81055 0.00465
19174.00000 0.004624
19174.18945 0.004567
19174.38086 0.00451
19174.56055 0.004453
19174.75000 0.004396
19174.93945 0.004339
19175.13086 0.004282
19175.31055 0.004225
19175.50000 0.004168
19175.68945 0.004111
19175.88086 0.004054
19176.06055 0.003995
19176.25000 0.003932
19176.43945 0.00387
19176.63086 0.003806
19176.82031 0.003744
19177.00000 0.003681
19177.18945 0.003618
19177.38086 0.003556
19177.57031 0.003493
19177.75000 0.003431
19177.93945 0.003367
19178.13086 0.003344
19178.32031 0.003338
19178.50977 0.003331
19178.68945 0.003325
19178.88086 0.003318
19179.07031 0.003312
19179.25977 0.003306
19179.44922 0.003299
19179.63086 0.003293
19179.82031 0.003287
19180.00977 0.003281
19180.19922 0.003297
19180.38086 0.003313
19180.57031 0.003329
19180.75977 0.003345
19180.94922 0.00336
19181.13086 0.003376
19181.32031 0.003392
19181.50977 0.003408
19181.69922 0.003424
19181.89062 0.00344
19182.07031 0.003431
19182.25977 0.003384
19182.44922 0.003337
19182.64062 0.00329
19182.82031 0.003243
19183.00977 0.003195
19183.19922 0.003148
19183.39062 0.003102
19183.58008 0.003055
19183.75977 0.003008
19183.94922 0.002961
19184.14062 0.002931
19184.33008 0.002908
19184.51953 0.002885
19184.69922 0.002862
19184.89062 0.002839
19185.08008 0.002816
19185.26953 0.002793
19185.46094 0.00277
19185.64062 0.002747
19185.83008 0.002724
19186.01953 0.002701
19186.21094 0.002677
19186.39062 0.002653
19186.58008 0.00263
19186.76953 0.002606
19186.96094 0.002582
19187.14062 0.002558
19187.33008 0.002534
19187.51953 0.00251
19187.71094 0.002487
19187.90039 0.002463
19188.08008 0.002446
19188.26953 0.002439
19188.46094 0.002431
19188.65039 0.002423
19188.83984 0.002415
19189.01953 0.002408
19189.21094 0.0024
19189.40039 0.002392
19189.58984 0.002385
19189.77930 0.002377
19189.96094 0.002369
19190.15039 0.0023
19190.33984 0.002214
19190.52930 0.002129
19190.71094 0.002044
19190.90039 0.001959
19191.08984 0.001875
19191.27930 0.001789
19191.47070 0.001704
19191.65039 0.001619
19191.83984 0.001534
19192.02930 0.001467
19192.22070 0.001492
19192.41016 0.001517
19192.58984 0.001542
19192.77930 0.001567
19192.97070 0.001592
19193.16016 0.001617
19193.34961 0.001642
19193.52930 0.001667
19193.72070 0.001692
19193.91016 0.001717
19194.09961 0.001685
19194.28906 0.001601
19194.47070 0.001517
19194.66016 0.001433
19194.84961 0.001348
19195.03906 0.001264
19195.22070 0.00118
19195.41016 0.001096
19195.59961 0.001012
19195.78906 0.000928
19195.98047 0.000844
19196.16016 0.000848
19196.34961 0.000864
19196.53906 0.000881
19196.73047 0.000897
19196.91992 0.000914
19197.09961 0.000931
19197.28906 0.000947
19197.48047 0.000964
19197.66992 0.000981
19197.85938 0.000997
19198.03906 0.001046
19198.23047 0.001199
19198.41992 0.001351
19198.60938 0.001504
19198.78906 0.001656
19198.98047 0.00181
19199.16992 0.001963
19199.35938 0.002115
19199.55078 0.002268
19199.74023 0.002422
19199.91992 0.002574
19200.10938 0.00265
19200.30078 0.002673
19200.49023 0.002697
19200.67969 0.00272
19200.85938 0.002743
19201.05078 0.002766
19201.24023 0.002789
19201.42969 0.002813
19201.61914 0.002836
19201.80078 0.002859
19201.99023 0.002882
19202.17969 0.002775
19202.36914 0.002662
19202.55078 0.002548
19202.74023 0.002434
19202.92969 0.002321
19203.11914 0.002208
19203.31055 0.002093
19203.50000 0.00198
19203.67969 0.001867
19203.86914 0.001754
19204.06055 0.001684
19204.25000 0.001708
19204.43945 0.001731
19204.61914 0.001755
19204.81055 0.001779
19205.00000 0.001803
19205.18945 0.001827
19205.36914 0.001851
19205.56055 0.001875
19205.75000 0.001899
19205.93945 0.001923
19206.13086 0.001882
19206.32031 0.001812
19206.50000 0.001741
19206.68945 0.001671
19206.88086 0.001599
19207.07031 0.001529
19207.25977 0.001459
19207.44922 0.001387
19207.63086 0.001317
19207.82031 0.001246
19208.00977 0.001179
19208.19922 0.001191
19208.38086 0.001203
19208.57031 0.001214
19208.75977 0.001226
19208.94922 0.001238
19209.14062 0.001249
19209.32031 0.001261
19209.50977 0.001273
19209.69922 0.001284
19209.89062 0.001296
19210.08008 0.001299
19210.26953 0.00129
19210.44922 0.00128
19210.64062 0.001271
19210.83008 0.001262
19211.01953 0.001252
19211.21094 0.001243
19211.39062 0.001234
19211.58008 0.001225
19211.76953 0.001215
19211.96094 0.001206
19212.15039 0.001209
19212.33008 0.001216
19212.51953 0.001223
19212.71094 0.001229
19212.90039 0.001236
19213.08984 0.001243
19213.27930 0.001249
19213.46094 0.001256
19213.65039 0.001263
19213.83984 0.00127
19214.02930 0.001253
19214.21094 0.001097
19214.40039 0.00094
19214.58984 0.000784
19214.77930 0.000628
19214.97070 0.000471
21136.46875 0.0
