# %ECSV 0.9
# ---
# datatype:
# - {name: wavelength, unit: Angstrom, datatype: float32}
# - {name: response, datatype: float32}
# meta: !!omap
# - {band_name: F150W}
# - {group_name: NICMOS3}
wavelength response
9208.34961 0.0
10231.50000 0.000402
10232.36035 0.000407
10233.23047 0.000412
10234.09961 0.000417
10234.96973 0.000422
10235.83008 0.000423
10236.70020 0.000424
10237.57031 0.000425
10238.44043 0.000426
10239.30957 0.000426
10240.16992 0.000428
10241.04004 0.000432
10241.91016 0.000435
10242.78027 0.000439
10243.65039 0.000443
10244.51953 0.000446
10245.38965 0.00045
10246.25000 0.000453
10247.12012 0.000457
10247.99023 0.000461
10248.86035 0.000464
10249.73047 0.000468
10250.59961 0.000469
10251.46973 0.00047
10252.33984 0.00047
10253.20996 0.00047
10254.08008 0.00047
10254.95020 0.000471
10255.82031 0.000473
10256.69043 0.000476
10257.55957 0.000478
10258.42969 0.000481
10259.29980 0.000484
10260.16992 0.000487
10261.04004 0.000496
10261.91016 0.000504
10262.78027 0.000512
10263.65039 0.000521
10264.51953 0.000529
10265.38965 0.000532
10266.25977 0.000529
10267.12988 0.000526
10268.00000 0.000522
10268.87012 0.000519
10269.74023 0.000516
10270.61035 0.000515
10271.48047 0.000517
10272.34961 0.000518
10273.21973 0.000519
10274.08984 0.00052
10274.96973 0.000521
10275.83984 0.000528
10276.70996 0.000536
10277.58008 0.000543
10278.45020 0.00055
10279.32031 0.000558
10280.20020 0.000563
10281.07031 0.000562
10281.94043 0.000561
10282.80957 0.00056
10283.67969 0.000558
10284.54980 0.000557
10285.42969 0.000558
10286.29980 0.000562
10287.16992 0.000566
10288.04004 0.000569
10288.91992 0.000573
10289.79004 0.000577
10290.66016 0.000581
10291.53027 0.000585
10292.41016 0.00059
10293.28027 0.000594
10294.15039 0.000598
10295.01953 0.000602
10295.90039 0.000604
10296.76953 0.000606
10297.63965 0.000607
10298.51953 0.000609
10299.38965 0.00061
10300.25977 0.000612
10301.13965 0.000613
10302.00977 0.000613
10302.87988 0.000614
10303.75977 0.000615
10304.62988 0.000616
10305.50000 0.000618
10306.37988 0.000622
10307.25000 0.000626
10308.12988 0.000629
10309.00000 0.000633
10309.87012 0.000637
10310.75000 0.000636
10311.62012 0.000635
10312.50000 0.000634
10313.37012 0.000633
10314.25000 0.000632
10315.12012 0.000632
10316.00000 0.000636
10316.87012 0.000639
10317.75000 0.000643
10318.62012 0.000646
10319.50000 0.00065
10320.37012 0.000653
10321.25000 0.000654
10322.12012 0.000655
10323.00000 0.000656
10323.87012 0.000657
10324.75000 0.000658
10325.62012 0.000663
10326.50000 0.000669
10327.37988 0.000676
10328.25000 0.000682
10329.12988 0.000689
10330.00000 0.000695
10330.87988 0.000695
10331.75000 0.000694
10332.62988 0.000693
10333.50977 0.000692
10334.37988 0.000691
10335.25977 0.000691
10336.13965 0.000692
10337.00977 0.000694
10337.88965 0.000695
10338.75977 0.000697
10339.63965 0.000698
10340.51953 0.000698
10341.40039 0.000698
10342.26953 0.000698
10343.15039 0.000698
10344.03027 0.000698
10344.90039 0.000698
10345.78027 0.000698
10346.66016 0.000699
10347.54004 0.000699
10348.41016 0.000699
10349.29004 0.0007
10350.16992 0.000701
10351.04980 0.000707
10351.91992 0.000712
10352.79980 0.000717
10353.67969 0.000722
10354.55957 0.000728
10355.42969 0.000731
10356.30957 0.000731
10357.19043 0.000731
10358.07031 0.000731
10358.95020 0.000731
10359.83008 0.000732
10360.70996 0.000733
10361.58008 0.000734
10362.45996 0.000736
10363.33984 0.000737
10364.21973 0.000739
10365.09961 0.00074
10365.98047 0.000742
10366.86035 0.000744
10367.74023 0.000746
10368.61035 0.000747
10369.49023 0.000749
10370.37012 0.000751
10371.25000 0.000753
10372.12988 0.000755
10373.00977 0.000757
10373.88965 0.000758
10374.76953 0.00076
10375.65039 0.000762
10376.53027 0.000764
10377.41016 0.000765
10378.29004 0.000767
10379.16992 0.000769
10380.04980 0.00077
10380.92969 0.000773
10381.80957 0.000775
10382.69043 0.000778
10383.57031 0.00078
10384.45020 0.000783
10385.33008 0.000785
10386.20996 0.000787
10387.08984 0.00079
10387.96973 0.000792
10388.86035 0.000794
10389.74023 0.000797
10390.62012 0.000802
10391.50000 0.000808
10392.37988 0.000814
10393.25977 0.000821
10394.13965 0.000827
10395.01953 0.000833
10395.91016 0.000834
10396.79004 0.000835
10397.66992 0.000835
10398.54980 0.000836
10399.42969 0.000837
10400.30957 0.000838
10401.20020 0.000841
10402.08008 0.000843
10402.95996 0.000846
10403.83984 0.000848
10404.71973 0.00085
10405.61035 0.000852
10406.49023 0.000854
10407.37012 0.000855
10408.25000 0.000856
10409.13965 0.000858
10410.01953 0.000859
10410.90039 0.000861
10411.78027 0.000864
10412.66992 0.000866
10413.54980 0.000868
10414.42969 0.00087
10415.32031 0.000873
10416.20020 0.000876
10417.08008 0.000879
10417.96973 0.000882
10418.84961 0.000885
10419.73047 0.000888
10420.62012 0.000892
10421.50000 0.000897
10422.37988 0.000901
10423.26953 0.000906
10424.15039 0.000911
10425.04004 0.000915
10425.91992 0.000917
10426.79980 0.000919
10427.69043 0.000921
10428.57031 0.000923
10429.45996 0.000925
10430.33984 0.000928
10431.23047 0.00093
10432.11035 0.000933
10433.00000 0.000935
10433.87988 0.000938
10434.75977 0.000941
10435.65039 0.000947
10436.53027 0.000954
10437.41992 0.000962
10438.29980 0.000969
10439.19043 0.000977
10440.07031 0.000984
10440.95996 0.000989
10441.83984 0.000993
10442.73047 0.000998
10443.62012 0.001002
10444.50000 0.001007
10445.38965 0.001009
10446.26953 0.001008
10447.16016 0.001007
10448.04004 0.001006
10448.92969 0.001005
10449.82031 0.001004
10450.70020 0.001011
10451.58984 0.00102
10452.48047 0.001029
10453.36035 0.001038
10454.25000 0.001047
10455.12988 0.001055
10456.01953 0.001061
10456.91016 0.001066
10457.79004 0.001071
10458.67969 0.001077
10459.57031 0.001082
10460.45996 0.001087
10461.33984 0.00109
10462.23047 0.001093
10463.12012 0.001096
10464.00000 0.0011
10464.88965 0.001103
10465.78027 0.00111
10466.66992 0.001117
10467.54980 0.001125
10468.44043 0.001132
10469.33008 0.001139
10470.21973 0.001146
10471.09961 0.00115
10471.99023 0.001154
10472.87988 0.001158
10473.76953 0.001162
10474.66016 0.001166
10475.54004 0.001172
10476.42969 0.001179
10477.32031 0.001187
10478.20996 0.001194
10479.09961 0.001202
10479.99023 0.001209
10480.87988 0.001218
10481.75977 0.001226
10482.65039 0.001235
10483.54004 0.001244
10484.42969 0.001252
10485.32031 0.001261
10486.20996 0.00127
10487.09961 0.001279
10487.99023 0.001288
10488.87988 0.001297
10489.76953 0.001306
10490.66016 0.001313
10491.54980 0.001319
10492.44043 0.001326
10493.33008 0.001332
10494.20996 0.001339
10495.09961 0.001346
10496.00000 0.001355
10496.87988 0.001364
10497.76953 0.001374
10498.66992 0.001383
10499.55957 0.001393
10500.45020 0.001401
10501.33984 0.001408
10502.23047 0.001415
10503.12012 0.001422
10504.00977 0.001429
10504.90039 0.001437
10505.79004 0.00145
10506.67969 0.001464
10507.57031 0.001478
10508.45996 0.001492
10509.34961 0.001506
10510.24023 0.00152
10511.13965 0.001531
10512.03027 0.001542
10512.91992 0.001553
10513.80957 0.001564
10514.70020 0.001575
10515.58984 0.001588
10516.48047 0.001601
10517.37988 0.001614
10518.26953 0.001627
10519.16016 0.00164
10520.04980 0.001653
10520.94043 0.001667
10521.83984 0.00168
10522.73047 0.001693
10523.62012 0.001706
10524.50977 0.00172
10525.41016 0.001732
10526.29980 0.001743
10527.19043 0.001754
10528.08008 0.001766
10528.98047 0.001777
10529.87012 0.001788
10530.75977 0.001804
10531.66016 0.00182
10532.54980 0.001836
10533.44043 0.001853
10534.33008 0.001869
10535.23047 0.001884
10536.12012 0.001894
10537.00977 0.001904
10537.91016 0.001914
10538.79980 0.001924
10539.70020 0.001934
10540.58984 0.001949
10541.48047 0.001968
10542.37988 0.001987
10543.26953 0.002005
10544.16992 0.002024
10545.05957 0.002043
10545.95020 0.002062
10546.84961 0.002081
10547.74023 0.0021
10548.63965 0.002119
10549.53027 0.002139
10550.41992 0.002159
10551.32031 0.00218
10552.20996 0.002201
10553.11035 0.002222
10554.00000 0.002243
10554.90039 0.002264
10555.79004 0.002284
10556.69043 0.002304
10557.58008 0.002324
10558.48047 0.002344
10559.37988 0.002364
10560.26953 0.002385
10561.16992 0.002407
10562.05957 0.002429
10562.95996 0.002451
10563.84961 0.002473
10564.75000 0.002495
10565.63965 0.002517
10566.54004 0.002538
10567.44043 0.00256
10568.33008 0.002582
10569.23047 0.002604
10570.12988 0.002626
10571.01953 0.002651
10571.91992 0.002675
10572.80957 0.0027
10573.70996 0.002725
10574.61035 0.002749
10575.50000 0.002774
10576.40039 0.002799
10577.29980 0.002824
10578.19043 0.002849
10579.08984 0.002875
10579.99023 0.0029
10580.88965 0.002931
10581.78027 0.002962
10582.67969 0.002993
10583.58008 0.003024
10584.46973 0.003055
10585.37012 0.003086
10586.26953 0.003115
10587.16992 0.003145
10588.07031 0.003175
10588.95996 0.003205
10589.86035 0.003234
10590.75977 0.003264
10591.66016 0.003294
10592.55957 0.003323
10593.45020 0.003353
10594.34961 0.003382
10595.25000 0.003414
10596.15039 0.003451
10597.04980 0.003488
10597.95020 0.003526
10598.83984 0.003563
10599.74023 0.0036
10600.63965 0.003632
10601.54004 0.003661
10602.44043 0.00369
10603.33984 0.00372
10604.24023 0.003749
10605.13965 0.00378
10606.04004 0.003818
10606.94043 0.003857
10607.83984 0.003895
10608.74023 0.003934
10609.62988 0.003972
10610.53027 0.004011
10611.42969 0.00405
10612.33008 0.004088
10613.23047 0.004127
10614.12988 0.004166
10615.03027 0.004205
10615.92969 0.004244
10616.83008 0.004284
10617.73047 0.004323
10618.62988 0.004363
10619.54004 0.004403
10620.44043 0.00444
10621.33984 0.004476
10622.24023 0.004511
10623.13965 0.004547
10624.04004 0.004582
10624.94043 0.004617
10625.83984 0.004661
10626.74023 0.004705
10627.63965 0.004749
10628.54004 0.004793
10629.45020 0.004837
10630.34961 0.004882
10631.25000 0.004928
10632.15039 0.004973
10633.04980 0.005019
10633.95020 0.005064
10634.84961 0.00511
10635.75977 0.00515
10636.66016 0.005189
10637.55957 0.005228
10638.45996 0.005267
10639.36035 0.005306
10640.26953 0.005346
10641.16992 0.005391
10642.07031 0.005435
10642.96973 0.00548
10643.87988 0.005525
10644.78027 0.005569
10645.67969 0.005613
10646.58008 0.005656
10647.49023 0.0057
10648.38965 0.005743
10649.29004 0.005786
10650.20020 0.00583
10651.09961 0.005876
10652.00000 0.005921
10652.91016 0.005967
10653.80957 0.006012
10654.70996 0.006058
10655.62012 0.006101
10656.51953 0.006142
10657.41992 0.006184
10658.33008 0.006226
10659.23047 0.006267
10660.12988 0.006309
10661.04004 0.006349
10661.94043 0.00639
10662.84961 0.00643
10663.75000 0.006471
10664.65039 0.006511
10665.55957 0.006551
10666.45996 0.00659
10667.37012 0.00663
10668.26953 0.006669
10669.17969 0.006708
10670.08008 0.006748
10670.99023 0.00679
10671.88965 0.006832
10672.79980 0.006874
10673.70020 0.006917
10674.61035 0.006959
10675.50977 0.006998
10676.41992 0.007035
10677.32031 0.007072
10678.23047 0.007109
10679.12988 0.007146
10680.04004 0.007184
10680.94043 0.007222
10681.84961 0.007261
10682.75977 0.0073
10683.66016 0.007339
10684.57031 0.007377
10685.46973 0.007414
10686.37988 0.007449
10687.29004 0.007485
10688.19043 0.00752
10689.09961 0.007555
10690.00000 0.00759
10690.91016 0.007623
10691.82031 0.007656
10692.71973 0.007689
10693.62988 0.007722
10694.54004 0.007755
10695.45020 0.007788
10696.34961 0.007821
10697.25977 0.007854
10698.16992 0.007886
10699.07031 0.007919
10699.98047 0.007952
10700.88965 0.00798
10701.79004 0.008009
10702.70020 0.008037
10703.61035 0.008065
10704.51953 0.008094
10705.42969 0.008121
10706.33008 0.008148
10707.24023 0.008176
10708.15039 0.008203
10709.05957 0.00823
10709.96973 0.008257
10710.87012 0.008285
10711.78027 0.008314
10712.69043 0.008342
10713.59961 0.00837
10714.50977 0.008399
10715.41992 0.008424
10716.32031 0.008445
10717.23047 0.008466
10718.13965 0.008487
10719.04980 0.008508
10719.95996 0.008529
10720.87012 0.008558
10721.78027 0.008586
10722.69043 0.008615
10723.59961 0.008644
10724.50977 0.008673
10725.41992 0.008698
10726.32031 0.008719
10727.23047 0.00874
10728.13965 0.008761
10729.04980 0.008782
10729.95996 0.008803
10730.87012 0.008825
10731.78027 0.008847
10732.69043 0.008869
10733.59961 0.008892
10734.50977 0.008914
10735.41992 0.008935
10736.33008 0.008955
10737.24023 0.008976
10738.15039 0.008996
10739.07031 0.009016
10739.98047 0.009037
10740.88965 0.009058
10741.79980 0.00908
10742.70996 0.009102
10743.62012 0.009124
10744.53027 0.009146
10745.44043 0.009168
10746.34961 0.00919
10747.25977 0.009211
10748.16992 0.009232
10749.08984 0.009254
10750.00000 0.009275
10750.91016 0.009296
10751.82031 0.009317
10752.73047 0.009338
10753.63965 0.009359
10754.55957 0.00938
10755.46973 0.009401
10756.37988 0.009422
10757.29004 0.009443
10758.20996 0.009465
10759.12012 0.009486
10760.03027 0.009507
10760.94043 0.009528
10761.84961 0.009548
10762.76953 0.009569
10763.67969 0.009589
10764.58984 0.009609
10765.50977 0.009632
10766.41992 0.009656
10767.33008 0.009681
10768.24023 0.009705
10769.16016 0.00973
10770.07031 0.009755
10770.98047 0.009785
10771.90039 0.009816
10772.80957 0.009846
10773.71973 0.009877
10774.63965 0.009907
10775.54980 0.009933
10776.45996 0.009957
10777.37988 0.00998
10778.29004 0.010003
10779.20996 0.010027
10780.12012 0.01005
10781.04004 0.010076
10781.95020 0.010102
10782.86035 0.010128
10783.78027 0.010154
10784.69043 0.01018
10785.61035 0.010209
10786.51953 0.01024
10787.44043 0.010271
10788.34961 0.010303
10789.26953 0.010334
10790.17969 0.010365
10791.09961 0.010397
10792.00977 0.010429
10792.92969 0.010461
10793.83984 0.010493
10794.75977 0.010526
10795.66992 0.010559
10796.58984 0.010593
10797.50000 0.010626
10798.41992 0.01066
10799.33008 0.010694
10800.25000 0.010729
10801.16992 0.010768
10802.08008 0.010807
10803.00000 0.010845
10803.91016 0.010884
10804.83008 0.010923
10805.75000 0.010965
10806.66016 0.011008
10807.58008 0.011051
10808.50000 0.011093
10809.41016 0.011136
10810.33008 0.011179
10811.25000 0.011221
10812.16016 0.011262
10813.08008 0.011304
10814.00000 0.011346
10814.91016 0.011388
10815.83008 0.011432
10816.75000 0.011476
10817.66016 0.01152
10818.58008 0.011564
10819.50000 0.011608
10820.41992 0.011658
10821.33008 0.011714
10822.25000 0.011771
10823.16992 0.011827
10824.08984 0.011883
10825.00000 0.01194
10825.91992 0.011994
10826.83984 0.012047
10827.75977 0.012101
10828.67969 0.012155
10829.58984 0.012208
10830.50977 0.012266
10831.42969 0.012326
10832.34961 0.012386
10833.26953 0.012446
10834.19043 0.012506
10835.11035 0.012567
10836.01953 0.012637
10836.94043 0.012707
10837.86035 0.012777
10838.78027 0.012847
10839.70020 0.012917
10840.62012 0.012984
10841.54004 0.01305
10842.45996 0.013115
10843.37988 0.013181
10844.29980 0.013246
10845.21973 0.013315
10846.13965 0.013395
10847.05957 0.013475
10847.98047 0.013554
10848.90039 0.013634
10849.82031 0.013713
10850.74023 0.013792
10851.66016 0.01387
10852.58008 0.013948
10853.50000 0.014026
10854.41992 0.014104
10855.33984 0.014185
10856.25977 0.014271
10857.17969 0.014356
10858.09961 0.014442
10859.01953 0.014528
10859.94043 0.014614
10860.86035 0.014713
10861.78027 0.014814
10862.70020 0.014914
10863.62012 0.015015
10864.54980 0.015115
10865.46973 0.015219
10866.38965 0.015327
10867.30957 0.015434
10868.23047 0.015541
10869.15039 0.015649
10870.08008 0.015757
10871.00000 0.015872
10871.91992 0.015987
10872.83984 0.016102
10873.75977 0.016218
10874.67969 0.016333
10875.61035 0.016451
10876.53027 0.016571
10877.45020 0.016691
10878.37012 0.016811
10879.29980 0.016931
10880.21973 0.017053
10881.13965 0.017179
10882.05957 0.017305
10882.99023 0.017431
10883.91016 0.017557
10884.83008 0.017684
10885.75000 0.017821
10886.67969 0.01796
10887.59961 0.0181
10888.51953 0.018239
10889.45020 0.018379
10890.37012 0.018523
10891.29004 0.018677
10892.21973 0.01883
10893.13965 0.018983
10894.07031 0.019136
10894.99023 0.01929
10895.91016 0.01946
10896.83984 0.019631
10897.75977 0.019801
10898.69043 0.019972
10899.61035 0.020142
10900.53027 0.02032
10901.45996 0.020502
10902.37988 0.020684
10903.30957 0.020866
10904.23047 0.021049
10905.16016 0.021232
10906.08008 0.021423
10907.00977 0.021614
10907.92969 0.021804
10908.86035 0.021995
10909.78027 0.022186
10910.70996 0.022387
10911.62988 0.022592
10912.55957 0.022796
10913.48047 0.023001
10914.41016 0.023206
10915.33008 0.023413
10916.25977 0.023626
10917.17969 0.023839
10918.11035 0.024052
10919.04004 0.024265
10919.95996 0.024479
10920.88965 0.024718
10921.80957 0.024959
10922.74023 0.0252
10923.66992 0.025441
10924.58984 0.025682
10925.51953 0.025938
10926.45020 0.026205
10927.37012 0.026473
10928.29980 0.02674
10929.21973 0.027008
10930.15039 0.027278
10931.08008 0.02756
10932.00977 0.027842
10932.92969 0.028124
10933.86035 0.028406
10934.79004 0.028689
10935.70996 0.02899
10936.63965 0.029297
10937.57031 0.029604
10938.50000 0.029912
10939.41992 0.030219
10940.34961 0.030528
10941.28027 0.030841
10942.20996 0.031153
10943.12988 0.031465
10944.05957 0.031777
10944.99023 0.032089
10945.91992 0.032429
10946.84961 0.032769
10947.78027 0.033109
10948.70020 0.033449
10949.62988 0.033789
10950.55957 0.034141
10951.49023 0.034501
10952.41992 0.034862
10953.34961 0.035222
10954.28027 0.035582
10955.20020 0.035951
10956.12988 0.036352
10957.05957 0.036752
10957.99023 0.037152
10958.91992 0.037553
10959.84961 0.037953
10960.78027 0.038381
10961.70996 0.038814
10962.63965 0.039247
10963.57031 0.039679
10964.50000 0.040113
10965.42969 0.040552
10966.36035 0.040998
10967.29004 0.041443
10968.21973 0.041889
10969.15039 0.042336
10970.08008 0.042783
10971.00977 0.043245
10971.94043 0.043708
10972.87012 0.044171
10973.79980 0.044633
10974.73047 0.045096
10975.66016 0.045569
10976.58984 0.046045
10977.51953 0.046522
10978.45020 0.046998
10979.37988 0.047475
10980.30957 0.047967
10981.25000 0.048489
10982.17969 0.049011
10983.11035 0.049533
10984.04004 0.050055
10984.96973 0.050577
10985.90039 0.051125
10986.83008 0.051674
10987.76953 0.052223
10988.70020 0.052772
10989.62988 0.053321
10990.55957 0.053889
10991.49023 0.05447
10992.41992 0.055051
10993.36035 0.055631
10994.29004 0.056212
10995.21973 0.056798
10996.15039 0.057399
10997.08984 0.058
10998.01953 0.058602
10998.95020 0.059203
10999.87988 0.059805
11000.82031 0.060401
11001.75000 0.060998
11002.67969 0.061594
11003.62012 0.06219
11004.54980 0.062787
11005.48047 0.063385
11006.41992 0.063986
11007.34961 0.064587
11008.28027 0.065187
11009.20996 0.065789
11010.15039 0.066394
11011.08008 0.067018
11012.01953 0.067643
11012.95020 0.068269
11013.87988 0.068894
11014.82031 0.06952
11015.75000 0.070142
11016.69043 0.070762
11017.62012 0.071384
11018.54980 0.072005
11019.49023 0.072626
11020.41992 0.073254
11021.36035 0.073888
11022.29004 0.074523
11023.23047 0.075158
11024.16016 0.075793
11025.09961 0.076431
11026.03027 0.07708
11026.96973 0.07773
11027.90039 0.07838
11028.83984 0.07903
11029.76953 0.079681
11030.70996 0.080287
11031.63965 0.080878
11032.58008 0.08147
11033.50977 0.082061
11034.45020 0.082653
11035.37988 0.083233
11036.32031 0.083797
11037.25977 0.084361
11038.19043 0.084926
11039.12988 0.08549
11040.05957 0.086054
11041.00000 0.086602
11041.94043 0.08715
11042.87012 0.087698
11043.80957 0.088247
11044.75000 0.088796
11045.67969 0.089328
11046.62012 0.089854
11047.55957 0.09038
11048.49023 0.090906
11049.42969 0.091433
11050.37012 0.091945
11051.29980 0.092435
11052.24023 0.092924
11053.17969 0.093414
11054.12012 0.093904
11055.04980 0.094393
11055.99023 0.094855
11056.92969 0.095317
11057.87012 0.095779
11058.79980 0.096241
11059.74023 0.096703
11060.67969 0.097132
11061.62012 0.097547
11062.54980 0.097963
11063.49023 0.098379
11064.42969 0.098795
11065.37012 0.099185
11066.30957 0.099537
11067.25000 0.099889
11068.17969 0.100241
11069.12012 0.100593
11070.05957 0.100943
11071.00000 0.101254
11071.94043 0.101566
11072.87988 0.101878
11073.82031 0.10219
11074.75977 0.102502
11075.69043 0.102782
11076.62988 0.103052
11077.57031 0.103321
11078.50977 0.103591
11079.45020 0.103861
11080.38965 0.104117
11081.33008 0.104354
11082.26953 0.104591
11083.20996 0.104828
11084.15039 0.105065
11085.08984 0.105298
11086.03027 0.105492
11086.96973 0.105685
11087.91016 0.105879
11088.84961 0.106072
11089.79004 0.106266
11090.73047 0.106435
11091.66992 0.106596
11092.61035 0.106757
11093.54980 0.106919
11094.49023 0.10708
11095.42969 0.107218
11096.37988 0.107328
11097.32031 0.107439
11098.25977 0.107549
11099.20020 0.107659
11100.13965 0.107767
11101.08008 0.107859
11102.01953 0.107952
11102.95996 0.108044
11103.91016 0.108137
11104.84961 0.10823
11105.79004 0.108305
11106.73047 0.108376
11107.66992 0.108448
11108.61035 0.10852
11109.55957 0.108591
11110.50000 0.108645
11111.44043 0.108683
11112.37988 0.10872
11113.32031 0.108758
11114.26953 0.108795
11115.20996 0.10883
11116.15039 0.108854
11117.08984 0.108878
11118.04004 0.108902
11118.98047 0.108926
11119.91992 0.10895
11120.87012 0.10897
11121.80957 0.10899
11122.75000 0.10901
11123.70020 0.10903
11124.63965 0.10905
11125.58008 0.109055
11126.53027 0.109052
11127.46973 0.109048
11128.41016 0.109045
11129.36035 0.109041
11130.29980 0.109036
11131.24023 0.109027
11132.19043 0.109018
11133.12988 0.109008
11134.08008 0.108999
11135.01953 0.10899
11135.95996 0.108985
11136.91016 0.10898
11137.84961 0.108974
11138.79980 0.108969
11139.74023 0.108964
11140.69043 0.10895
11141.62988 0.108934
11142.58008 0.108917
11143.51953 0.1089
11144.45996 0.108884
11145.41016 0.108866
11146.36035 0.108846
11147.29980 0.108826
11148.25000 0.108807
11149.19043 0.108787
11150.13965 0.108769
11151.08008 0.108764
11152.03027 0.108758
11152.96973 0.108753
11153.91992 0.108748
11154.87012 0.108743
11155.80957 0.108736
11156.75977 0.108729
11157.70020 0.108722
11158.65039 0.108715
11159.58984 0.108708
11160.54004 0.1087
11161.49023 0.10869
11162.42969 0.10868
11163.37988 0.108671
11164.33008 0.108661
11165.26953 0.108659
11166.21973 0.108678
11167.16992 0.108696
11168.11035 0.108715
11169.05957 0.108734
11170.00977 0.108752
11170.95996 0.108758
11171.90039 0.108764
11172.84961 0.10877
11173.79980 0.108775
11174.75000 0.108781
11175.69043 0.108796
11176.63965 0.108814
11177.58984 0.108833
11178.54004 0.108851
11179.48047 0.10887
11180.42969 0.108896
11181.37988 0.10893
11182.33008 0.108965
11183.28027 0.109
11184.23047 0.109035
11185.16992 0.109071
11186.12012 0.109108
11187.07031 0.109146
11188.01953 0.109184
11188.96973 0.109221
11189.91992 0.109259
11190.87012 0.109302
11191.80957 0.109345
11192.75977 0.109389
11193.70996 0.109432
11194.66016 0.109475
11195.61035 0.109526
11196.55957 0.10958
11197.50977 0.109634
11198.45996 0.109688
11199.41016 0.109742
11200.36035 0.109798
11201.30957 0.10986
11202.25977 0.109921
11203.20996 0.109983
11204.16016 0.110044
11205.11035 0.110107
11206.05957 0.110178
11207.00977 0.11025
11207.95996 0.110322
11208.91016 0.110394
11209.86035 0.110466
11210.80957 0.110546
11211.75977 0.110627
11212.70996 0.110709
11213.66016 0.11079
11214.61035 0.110872
11215.55957 0.110961
11216.51953 0.111056
11217.46973 0.111151
11218.41992 0.111245
11219.37012 0.11134
11220.32031 0.111434
11221.26953 0.111527
11222.21973 0.111619
11223.16992 0.111711
11224.12988 0.111804
11225.08008 0.111897
11226.03027 0.111998
11226.98047 0.112099
11227.92969 0.1122
11228.88965 0.112301
11229.83984 0.112402
11230.79004 0.112509
11231.74023 0.112617
11232.70020 0.112725
11233.65039 0.112833
11234.59961 0.112941
11235.54980 0.113048
11236.50977 0.113156
11237.45996 0.113264
11238.41016 0.113372
11239.37012 0.113479
11240.32031 0.113594
11241.26953 0.113724
11242.21973 0.113854
11243.17969 0.113983
11244.12988 0.114113
11245.08008 0.114242
11246.04004 0.114364
11246.99023 0.114487
11247.95020 0.114609
11248.90039 0.114731
11249.84961 0.114853
11250.80957 0.114971
11251.75977 0.115087
11252.71973 0.115204
11253.66992 0.115321
11254.62012 0.115437
11255.58008 0.115563
11256.53027 0.115694
11257.49023 0.115826
11258.44043 0.115957
11259.40039 0.116088
11260.34961 0.116217
11261.30957 0.116342
11262.25977 0.116466
11263.21973 0.116591
11264.16992 0.116715
11265.12988 0.116839
11266.08008 0.116961
11267.04004 0.117082
11267.99023 0.117204
11268.95020 0.117325
11269.90039 0.117447
11270.86035 0.117574
11271.80957 0.117702
11272.76953 0.11783
11273.73047 0.117958
11274.67969 0.118086
11275.63965 0.118223
11276.58984 0.118366
11277.54980 0.118508
11278.50977 0.11865
11279.45996 0.118792
11280.41992 0.118924
11281.37988 0.119043
11282.33008 0.119161
11283.29004 0.119279
11284.25000 0.119398
11285.20020 0.119517
11286.16016 0.119639
11287.12012 0.119761
11288.08008 0.119882
11289.03027 0.120004
11289.99023 0.120126
11290.95020 0.120244
11291.90039 0.120363
11292.86035 0.120481
11293.82031 0.1206
11294.78027 0.120718
11295.73047 0.12083
11296.69043 0.120938
11297.65039 0.121047
11298.61035 0.121156
11299.57031 0.121265
11300.51953 0.121378
11301.48047 0.121494
11302.44043 0.121609
11303.40039 0.121725
11304.36035 0.121841
11305.32031 0.121952
11306.28027 0.122057
11307.23047 0.122161
11308.19043 0.122266
11309.15039 0.12237
11310.11035 0.122475
11311.07031 0.122577
11312.03027 0.122678
11312.99023 0.12278
11313.95020 0.122882
11314.91016 0.122984
11315.87012 0.123084
11316.83008 0.123184
11317.79004 0.123284
11318.75000 0.123384
11319.70996 0.123484
11320.66992 0.123573
11321.62012 0.123657
11322.58008 0.123742
11323.54004 0.123826
11324.50977 0.123911
11325.46973 0.123994
11326.42969 0.124076
11327.38965 0.124158
11328.34961 0.12424
11329.30957 0.124322
11330.26953 0.124404
11331.23047 0.124482
11332.19043 0.124561
11333.15039 0.12464
11334.11035 0.124719
11335.07031 0.124798
11336.03027 0.124873
11337.00000 0.124948
11337.95996 0.125023
11338.91992 0.125098
11339.87988 0.125173
11340.83984 0.125239
11341.79980 0.125303
11342.75977 0.125368
11343.73047 0.125433
11344.69043 0.125498
11345.65039 0.125559
11346.61035 0.125618
11347.58008 0.125678
11348.54004 0.125738
11349.50000 0.125797
11350.45996 0.125854
11351.41992 0.125907
11352.38965 0.12596
11353.34961 0.126013
11354.30957 0.126066
11355.28027 0.126117
11356.24023 0.126165
11357.20020 0.126212
11358.16016 0.126259
11359.12988 0.126307
11360.08984 0.126354
11361.04980 0.126398
11362.01953 0.126442
11362.98047 0.126486
11363.94043 0.126531
11364.91016 0.126575
11365.87012 0.126615
11366.83008 0.126655
11367.79980 0.126694
11368.75977 0.126734
11369.73047 0.126774
11370.69043 0.126804
11371.66016 0.12683
11372.62012 0.126856
11373.58008 0.126883
11374.54980 0.126909
11375.50977 0.126938
11376.48047 0.12697
11377.44043 0.127003
11378.41016 0.127035
11379.37012 0.127067
11380.33984 0.127097
11381.29980 0.127123
11382.26953 0.127148
11383.23047 0.127174
11384.20020 0.127199
11385.16016 0.127223
11386.12988 0.12724
11387.08984 0.127257
11388.05957 0.127273
11389.03027 0.12729
11389.99023 0.127306
11390.95996 0.127327
11391.91992 0.127347
11392.88965 0.127367
11393.84961 0.127388
11394.82031 0.127408
11395.79004 0.127427
11396.75000 0.127446
11397.71973 0.127464
11398.69043 0.127483
11399.65039 0.127502
11400.62012 0.127515
11401.58984 0.127525
11402.54980 0.127535
11403.51953 0.127545
11404.49023 0.127555
11405.45020 0.127569
11406.41992 0.127587
11407.38965 0.127605
11408.36035 0.127623
11409.32031 0.127641
11410.29004 0.127657
11411.25977 0.127668
11412.23047 0.12768
11413.19043 0.127691
11414.16016 0.127703
11415.12988 0.127715
11416.09961 0.127728
11417.07031 0.127741
11418.03027 0.127754
11419.00000 0.127768
11419.96973 0.127781
11420.94043 0.127805
11421.91016 0.127829
11422.87988 0.127854
11423.83984 0.127878
11424.80957 0.127903
11425.78027 0.127914
11426.75000 0.127923
11427.71973 0.127932
11428.69043 0.127941
11429.66016 0.127949
11430.62988 0.127957
11431.59961 0.127963
11432.57031 0.127969
11433.54004 0.127976
11434.50000 0.127982
11435.46973 0.127992
11436.44043 0.128006
11437.41016 0.12802
11438.37988 0.128034
11439.34961 0.128048
11440.32031 0.128064
11441.29004 0.128084
11442.25977 0.128105
11443.23047 0.128125
11444.20020 0.128145
11445.16992 0.128163
11446.15039 0.128171
11447.12012 0.128179
11448.08984 0.128187
11449.05957 0.128195
11450.03027 0.128203
11451.00000 0.128221
11451.96973 0.12824
11452.94043 0.128258
11453.91016 0.128276
11454.87988 0.128295
11455.86035 0.128316
11456.83008 0.128337
11457.79980 0.128359
11458.76953 0.128381
11459.74023 0.128402
11460.70996 0.128421
11461.67969 0.128438
11462.66016 0.128456
11463.62988 0.128473
11464.59961 0.12849
11465.57031 0.12851
11466.54980 0.128532
11467.51953 0.128554
11468.49023 0.128576
11469.45996 0.128598
11470.44043 0.128626
11471.41016 0.12866
11472.37988 0.128695
11473.34961 0.12873
11474.33008 0.128764
11475.29980 0.128798
11476.26953 0.128829
11477.25000 0.128861
11478.21973 0.128892
11479.19043 0.128924
11480.16992 0.128955
11481.13965 0.128987
11482.11035 0.129019
11483.08984 0.129051
11484.05957 0.129082
11485.03027 0.129114
11486.00977 0.12915
11486.98047 0.129186
11487.95996 0.129222
11488.92969 0.129258
11489.90039 0.129294
11490.87988 0.129331
11491.84961 0.129368
11492.83008 0.129405
11493.79980 0.129441
11494.78027 0.129478
11495.75000 0.129524
11496.73047 0.129573
11497.70020 0.129621
11498.67969 0.12967
11499.65039 0.129718
11500.62988 0.129762
11501.59961 0.129802
11502.58008 0.129843
11503.54980 0.129883
11504.53027 0.129924
11505.50000 0.129963
11506.48047 0.13
11507.45020 0.130037
11508.42969 0.130074
11509.41016 0.13011
11510.37988 0.13015
11511.36035 0.130192
11512.33008 0.130234
11513.30957 0.130277
11514.29004 0.130319
11515.25977 0.130365
11516.24023 0.130421
11517.21973 0.130476
11518.19043 0.130532
11519.16992 0.130587
11520.15039 0.130641
11521.12012 0.130685
11522.09961 0.130729
11523.08008 0.130772
11524.04980 0.130816
11525.03027 0.13086
11526.00977 0.130917
11526.99023 0.130973
11527.95996 0.131029
11528.94043 0.131086
11529.91992 0.131142
11530.90039 0.131209
11531.87012 0.131276
11532.84961 0.131344
11533.83008 0.131412
11534.80957 0.131479
11535.79004 0.131534
11536.75977 0.131586
11537.74023 0.131639
11538.71973 0.131691
11539.70020 0.131743
11540.67969 0.131805
11541.66016 0.131871
11542.63965 0.131937
11543.61035 0.132003
11544.58984 0.132069
11545.57031 0.132141
11546.54980 0.132217
11547.53027 0.132294
11548.50977 0.13237
11549.49023 0.132446
11550.46973 0.132517
11551.45020 0.132583
11552.42969 0.132648
11553.41016 0.132713
11554.38965 0.132778
11555.37012 0.132845
11556.34961 0.132914
11557.33008 0.132983
11558.30957 0.133051
11559.29004 0.13312
11560.26953 0.133194
11561.25000 0.13328
11562.23047 0.133367
11563.20996 0.133453
11564.19043 0.133539
11565.16992 0.133624
11566.15039 0.133698
11567.12988 0.133772
11568.11035 0.133846
11569.08984 0.133921
11570.07031 0.133995
11571.04980 0.134065
11572.04004 0.134135
11573.01953 0.134206
11574.00000 0.134276
11574.98047 0.134347
11575.95996 0.134431
11576.94043 0.134515
11577.91992 0.134599
11578.91016 0.134683
11579.88965 0.134768
11580.87012 0.134844
11581.84961 0.134919
11582.83008 0.134995
11583.82031 0.13507
11584.79980 0.135146
11585.78027 0.135224
11586.75977 0.135304
11587.75000 0.135383
11588.73047 0.135463
11589.70996 0.135542
11590.69043 0.13563
11591.67969 0.135722
11592.66016 0.135813
11593.63965 0.135905
11594.62988 0.135997
11595.61035 0.136077
11596.58984 0.13615
11597.58008 0.136223
11598.55957 0.136296
11599.54004 0.136369
11600.53027 0.136448
11601.50977 0.136533
11602.49023 0.136617
11603.48047 0.136701
11604.45996 0.136785
11605.45020 0.136871
11606.42969 0.136957
11607.41016 0.137044
11608.40039 0.13713
11609.37988 0.137217
11610.37012 0.137299
11611.34961 0.137375
11612.33984 0.13745
11613.32031 0.137525
11614.30957 0.1376
11615.29004 0.137675
11616.28027 0.137748
11617.25977 0.137822
11618.25000 0.137895
11619.23047 0.137969
11620.21973 0.138046
11621.20020 0.138137
11622.19043 0.138228
11623.16992 0.138319
11624.16016 0.13841
11625.13965 0.138499
11626.12988 0.138573
11627.12012 0.138647
11628.09961 0.138722
11629.08984 0.138796
11630.07031 0.13887
11631.05957 0.138933
11632.04980 0.138996
11633.03027 0.13906
11634.01953 0.139123
11635.00000 0.139187
11635.99023 0.139258
11636.98047 0.139329
11637.96973 0.139401
11638.95020 0.139472
11639.94043 0.139543
11640.92969 0.139604
11641.91016 0.139664
11642.90039 0.139725
11643.88965 0.139785
11644.87012 0.139845
11645.86035 0.139907
11646.84961 0.139969
11647.83984 0.140031
11648.83008 0.140093
11649.80957 0.140154
11650.79980 0.140217
11651.79004 0.14028
11652.78027 0.140343
11653.76953 0.140406
11654.75000 0.140468
11655.74023 0.140521
11656.73047 0.14057
11657.71973 0.140619
11658.70996 0.140668
11659.70020 0.140717
11660.67969 0.140764
11661.66992 0.140809
11662.66016 0.140855
11663.65039 0.140901
11664.63965 0.140946
11665.62988 0.140995
11666.62012 0.141046
11667.61035 0.141097
11668.59961 0.141149
11669.58984 0.1412
11670.58008 0.141241
11671.57031 0.141275
11672.55957 0.14131
11673.54980 0.141344
11674.54004 0.141379
11675.53027 0.14141
11676.51953 0.141438
11677.50977 0.141465
11678.50000 0.141493
11679.49023 0.141521
11680.48047 0.141556
11681.46973 0.141598
11682.45996 0.141641
11683.45020 0.141683
11684.44043 0.141725
11685.42969 0.141757
11686.41992 0.141776
11687.41016 0.141794
11688.40039 0.141813
11689.38965 0.141831
11690.37988 0.14185
11691.37988 0.141871
11692.37012 0.141892
11693.36035 0.141912
11694.34961 0.141933
11695.33984 0.141951
11696.33008 0.141964
11697.33008 0.141977
11698.32031 0.141991
11699.30957 0.142004
11700.29980 0.142018
11701.29004 0.142034
11702.29004 0.14205
11703.28027 0.142065
11704.26953 0.142081
11705.25977 0.142091
11706.25977 0.142086
11707.25000 0.14208
11708.24023 0.142074
11709.23047 0.142068
11710.23047 0.142064
11711.21973 0.142067
11712.20996 0.142069
11713.20996 0.142071
11714.20020 0.142074
11715.19043 0.142074
11716.19043 0.142069
11717.17969 0.142064
11718.16992 0.142058
11719.16992 0.142053
11720.16016 0.142045
11721.16016 0.142025
11722.15039 0.142005
11723.13965 0.141985
11724.13965 0.141965
11725.12988 0.141947
11726.12988 0.141943
11727.12012 0.141938
11728.11035 0.141933
11729.11035 0.141928
11730.09961 0.141922
11731.09961 0.141901
11732.08984 0.141881
11733.08984 0.14186
11734.08008 0.141839
11735.08008 0.141818
11736.07031 0.141793
11737.07031 0.141769
11738.05957 0.141744
11739.05957 0.141719
11740.04980 0.141695
11741.04980 0.141674
11742.04004 0.141654
11743.04004 0.141633
11744.04004 0.141613
11745.03027 0.141592
11746.03027 0.141549
11747.01953 0.141507
11748.01953 0.141465
11749.01953 0.141422
11750.00977 0.14138
11751.00977 0.141357
11752.00977 0.141333
11753.00000 0.141309
11754.00000 0.141285
11755.00000 0.141262
11755.99023 0.141225
11756.99023 0.141187
11757.99023 0.14115
11758.98047 0.141113
11759.98047 0.141076
11760.98047 0.141039
11761.96973 0.141002
11762.96973 0.140965
11763.96973 0.140927
11764.96973 0.14089
11765.95996 0.140848
11766.95996 0.140806
11767.95996 0.140763
11768.95996 0.14072
11769.95996 0.140678
11770.95020 0.140638
11771.95020 0.140598
11772.95020 0.140557
11773.95020 0.140517
11774.95020 0.140477
11775.95020 0.14044
11776.94043 0.140403
11777.94043 0.140366
11778.94043 0.140329
11779.94043 0.140292
11780.94043 0.140239
11781.94043 0.140185
11782.94043 0.14013
11783.94043 0.140076
11784.94043 0.140022
11785.94043 0.139979
11786.92969 0.139936
11787.92969 0.139894
11788.92969 0.139851
11789.92969 0.139809
11790.92969 0.139757
11791.92969 0.139704
11792.92969 0.139651
11793.92969 0.139598
11794.92969 0.139545
11795.92969 0.1395
11796.92969 0.139456
11797.92969 0.139412
11798.92969 0.139368
11799.92969 0.139324
11800.94043 0.13928
11801.94043 0.139236
11802.94043 0.139192
11803.94043 0.139148
11804.94043 0.139104
11805.94043 0.139047
11806.94043 0.13899
11807.94043 0.138932
11808.94043 0.138875
11809.95020 0.138818
11810.95020 0.13876
11811.95020 0.138703
11812.95020 0.138646
11813.95020 0.138588
11814.95020 0.138531
11815.95996 0.138475
11816.95996 0.138419
11817.95996 0.138363
11818.95996 0.138307
11819.95996 0.138251
11820.96973 0.138199
11821.96973 0.138148
11822.96973 0.138096
11823.96973 0.138045
11824.98047 0.137993
11825.98047 0.137933
11826.98047 0.137873
11827.98047 0.137813
11828.99023 0.137753
11829.99023 0.137693
11830.99023 0.137655
11832.00000 0.137617
11833.00000 0.137579
11834.00000 0.137541
11835.00977 0.137502
11836.00977 0.137449
11837.00977 0.137396
11838.01953 0.137343
11839.01953 0.13729
11840.03027 0.137236
11841.03027 0.137175
11842.03027 0.137114
11843.04004 0.137053
11844.04004 0.136992
11845.04980 0.136931
11846.04980 0.136885
11847.05957 0.136839
11848.05957 0.136794
11849.05957 0.136748
11850.07031 0.136702
11851.07031 0.136655
11852.08008 0.136608
11853.08008 0.136562
11854.08984 0.136515
11855.08984 0.136467
11856.09961 0.136412
11857.11035 0.136357
11858.11035 0.136302
11859.12012 0.136247
11860.12012 0.136193
11861.12988 0.136153
11862.12988 0.136112
11863.13965 0.136071
11864.15039 0.13603
11865.15039 0.13599
11866.16016 0.135949
11867.16016 0.135908
11868.16992 0.135868
11869.17969 0.135827
11870.17969 0.135784
11871.19043 0.135727
11872.20020 0.135671
11873.20020 0.135615
11874.20996 0.135559
11875.21973 0.135507
11876.21973 0.135468
11877.23047 0.135428
11878.24023 0.135389
11879.25000 0.13535
11880.25000 0.135309
11881.25977 0.135264
11882.26953 0.135218
11883.26953 0.135173
11884.28027 0.135127
11885.29004 0.135084
11886.29980 0.135047
11887.30957 0.135011
11888.30957 0.134974
11889.32031 0.134938
11890.33008 0.134901
11891.33984 0.134863
11892.34961 0.134825
11893.36035 0.134787
11894.36035 0.134749
11895.37012 0.134714
11896.37988 0.134684
11897.38965 0.134655
11898.40039 0.134626
11899.41016 0.134596
11900.41992 0.134562
11901.42969 0.134523
11902.42969 0.134484
11903.44043 0.134444
11904.45020 0.134405
11905.45996 0.134371
11906.46973 0.134343
11907.48047 0.134314
11908.49023 0.134286
11909.50000 0.134258
11910.50977 0.134228
11911.51953 0.134197
11912.53027 0.134166
11913.54004 0.134134
11914.54980 0.134103
11915.55957 0.134075
11916.57031 0.13405
11917.58008 0.134025
11918.58984 0.134
11919.59961 0.133975
11920.62012 0.133954
11921.62988 0.133934
11922.63965 0.133915
11923.65039 0.133895
11924.66016 0.133876
11925.66992 0.133859
11926.67969 0.133845
11927.69043 0.133831
11928.70020 0.133816
11929.71973 0.133802
11930.73047 0.133786
11931.74023 0.13377
11932.75000 0.133755
11933.75977 0.133739
11934.78027 0.133723
11935.79004 0.133709
11936.79980 0.133695
11937.80957 0.133681
11938.82031 0.133668
11939.83984 0.133654
11940.84961 0.133649
11941.86035 0.133645
11942.87012 0.133641
11943.88965 0.133637
11944.90039 0.133633
11945.91016 0.133623
11946.91992 0.133612
11947.94043 0.133601
11948.95020 0.13359
11949.95996 0.133579
11950.98047 0.133582
11951.99023 0.133585
11953.00000 0.133588
11954.01953 0.133592
11955.03027 0.133595
11956.04980 0.133596
11957.05957 0.133596
11958.07031 0.133596
11959.08984 0.133597
11960.09961 0.133598
11961.12012 0.133603
11962.12988 0.133608
11963.13965 0.133613
11964.16016 0.133619
11965.16992 0.133624
11966.19043 0.133633
11967.20020 0.133641
11968.21973 0.13365
11969.23047 0.133659
11970.25000 0.133669
11971.25977 0.133687
11972.28027 0.133704
11973.29004 0.133721
11974.30957 0.133739
11975.32031 0.133753
11976.33984 0.13376
11977.34961 0.133767
11978.37012 0.133774
11979.38965 0.133781
11980.40039 0.133795
11981.41992 0.133821
11982.42969 0.133847
11983.45020 0.133873
11984.46973 0.133899
11985.48047 0.133926
11986.50000 0.133953
11987.50977 0.13398
11988.53027 0.134007
11989.54980 0.134034
11990.55957 0.134059
11991.58008 0.134082
11992.59961 0.134105
11993.62012 0.134128
11994.62988 0.134151
11995.65039 0.134189
11996.66992 0.134237
11997.67969 0.134285
11998.70020 0.134332
11999.71973 0.13438
12000.74023 0.13441
12001.75000 0.134434
12002.76953 0.134458
12003.79004 0.134482
12004.80957 0.134506
12005.83008 0.134524
12006.83984 0.134541
12007.86035 0.134559
12008.87988 0.134576
12009.90039 0.134593
12010.91992 0.134614
12011.92969 0.134635
12012.95020 0.134657
12013.96973 0.134678
12014.99023 0.1347
12016.00977 0.13473
12017.03027 0.13476
12018.04980 0.13479
12019.07031 0.13482
12020.08984 0.134849
12021.11035 0.134873
12022.12988 0.134897
12023.13965 0.134921
12024.16016 0.134945
12025.17969 0.134972
12026.20020 0.135009
12027.21973 0.135046
12028.24023 0.135083
12029.25977 0.13512
12030.28027 0.135157
12031.29980 0.135194
12032.32031 0.135232
12033.33984 0.135269
12034.36035 0.135306
12035.37988 0.135343
12036.40039 0.135379
12037.42969 0.135415
12038.45020 0.135452
12039.46973 0.135488
12040.49023 0.135529
12041.50977 0.135574
12042.53027 0.135619
12043.54980 0.135665
12044.57031 0.13571
12045.58984 0.135754
12046.62012 0.135796
12047.63965 0.135839
12048.66016 0.135881
12049.67969 0.135924
12050.70020 0.13597
12051.71973 0.136017
12052.75000 0.136065
12053.76953 0.136112
12054.79004 0.13616
12055.80957 0.136207
12056.83008 0.136253
12057.86035 0.1363
12058.87988 0.136346
12059.90039 0.136393
12060.91992 0.136453
12061.95020 0.136515
12062.96973 0.136577
12063.99023 0.136639
12065.01953 0.136701
12066.04004 0.136752
12067.05957 0.136804
12068.08008 0.136855
12069.11035 0.136907
12070.12988 0.136959
12071.16016 0.137012
12072.17969 0.137066
12073.20020 0.13712
12074.23047 0.137173
12075.25000 0.13723
12076.26953 0.137296
12077.29980 0.137362
12078.32031 0.137428
12079.34961 0.137494
12080.37012 0.137556
12081.40039 0.137609
12082.41992 0.137661
12083.44043 0.137714
12084.46973 0.137767
12085.49023 0.137821
12086.51953 0.137876
12087.54004 0.137932
12088.57031 0.137987
12089.58984 0.138042
12090.62012 0.138104
12091.63965 0.13817
12092.66992 0.138237
12093.70020 0.138303
12094.71973 0.13837
12095.75000 0.138433
12096.76953 0.138494
12097.79980 0.138555
12098.82031 0.138616
12099.84961 0.138677
12100.87012 0.138741
12101.90039 0.138806
12102.92969 0.138871
12103.95020 0.138936
12104.98047 0.139001
12106.00977 0.139075
12107.03027 0.13915
12108.05957 0.139225
12109.08984 0.1393
12110.11035 0.139373
12111.13965 0.139432
12112.16992 0.139491
12113.19043 0.13955
12114.21973 0.13961
12115.25000 0.139672
12116.28027 0.139744
12117.29980 0.139817
12118.33008 0.139889
12119.36035 0.139962
12120.38965 0.14003
12121.41016 0.140092
12122.44043 0.140154
12123.46973 0.140217
12124.50000 0.140279
12125.53027 0.140347
12126.54980 0.140421
12127.58008 0.140496
12128.61035 0.14057
12129.63965 0.140645
12130.66992 0.140712
12131.70020 0.140776
12132.73047 0.14084
12133.75000 0.140904
12134.78027 0.140968
12135.80957 0.14104
12136.83984 0.141113
12137.87012 0.141185
12138.90039 0.141258
12139.92969 0.141331
12140.95996 0.1414
12141.99023 0.141469
12143.01953 0.141538
12144.04980 0.141606
12145.08008 0.141674
12146.11035 0.141732
12147.13965 0.14179
12148.16992 0.141848
12149.20020 0.141905
12150.23047 0.141968
12151.25977 0.142048
12152.29004 0.142127
12153.32031 0.142206
12154.34961 0.142286
12155.37988 0.142357
12156.41016 0.142412
12157.44043 0.142468
12158.46973 0.142523
12159.50000 0.142579
12160.53027 0.142636
12161.57031 0.142695
12162.59961 0.142754
12163.62988 0.142812
12164.66016 0.142871
12165.69043 0.142934
12166.71973 0.143
12167.75000 0.143066
12168.79004 0.143131
12169.82031 0.143197
12170.84961 0.143256
12171.87988 0.143314
12172.91992 0.143372
12173.95020 0.143429
12174.98047 0.143487
12176.00977 0.143544
12177.04004 0.143602
12178.08008 0.14366
12179.11035 0.143718
12180.13965 0.143776
12181.16992 0.143832
12182.20996 0.143887
12183.24023 0.143943
12184.26953 0.143999
12185.30957 0.144053
12186.33984 0.144104
12187.37012 0.144154
12188.41016 0.144204
12189.44043 0.144255
12190.46973 0.144306
12191.50977 0.144358
12192.54004 0.14441
12193.58008 0.144462
12194.61035 0.144514
12195.63965 0.144566
12196.67969 0.144619
12197.70996 0.144671
12198.75000 0.144723
12199.78027 0.144776
12200.82031 0.144813
12201.84961 0.144846
12202.87988 0.14488
12203.91992 0.144913
12204.95020 0.144947
12205.99023 0.144981
12207.01953 0.145016
12208.05957 0.14505
12209.08984 0.145085
12210.12988 0.145121
12211.16992 0.14516
12212.20020 0.145201
12213.24023 0.14524
12214.26953 0.145281
12215.30957 0.145315
12216.33984 0.145338
12217.37988 0.145361
12218.41992 0.145383
12219.45020 0.145406
12220.49023 0.145433
12221.51953 0.145465
12222.55957 0.145498
12223.59961 0.14553
12224.62988 0.145562
12225.66992 0.14559
12226.70996 0.145615
12227.74023 0.145639
12228.78027 0.145664
12229.82031 0.145688
12230.84961 0.14571
12231.88965 0.145732
12232.92969 0.145753
12233.96973 0.145774
12235.00000 0.145795
12236.04004 0.145805
12237.08008 0.145816
12238.12012 0.145826
12239.15039 0.145836
12240.19043 0.145846
12241.23047 0.14586
12242.26953 0.145873
12243.30957 0.145886
12244.33984 0.145899
12245.37988 0.145913
12246.41992 0.145929
12247.45996 0.145945
12248.50000 0.14596
12249.54004 0.145976
12250.58008 0.145982
12251.61035 0.145982
12252.65039 0.145982
12253.69043 0.145982
12254.73047 0.145981
12255.76953 0.145985
12256.80957 0.14599
12257.84961 0.145994
12258.88965 0.145999
12259.92969 0.146004
12260.96973 0.146004
12262.00977 0.146003
12263.04980 0.146002
12264.08984 0.146001
12265.12988 0.146
12266.16992 0.145989
12267.20996 0.145979
12268.25000 0.145969
12269.29004 0.145959
12270.33008 0.145952
12271.37012 0.145952
12272.41016 0.145951
12273.45020 0.14595
12274.49023 0.14595
12275.53027 0.145943
12276.57031 0.14593
12277.61035 0.145917
12278.65039 0.145904
12279.70020 0.145891
12280.74023 0.145867
12281.78027 0.145838
12282.82031 0.145808
12283.86035 0.145779
12284.90039 0.14575
12285.94043 0.145736
12286.99023 0.145724
12288.03027 0.145712
12289.07031 0.1457
12290.11035 0.145686
12291.15039 0.145656
12292.20020 0.145626
12293.24023 0.145597
12294.28027 0.145567
12295.32031 0.145537
12296.37012 0.145506
12297.41016 0.145475
12298.45020 0.145444
12299.50000 0.145413
12300.54004 0.145386
12301.58008 0.145362
12302.62012 0.145339
12303.66992 0.145315
12304.70996 0.145292
12305.75000 0.145265
12306.79980 0.145236
12307.83984 0.145207
12308.87988 0.145179
12309.92969 0.14515
12310.96973 0.145101
12312.01953 0.145051
12313.05957 0.145001
12314.09961 0.144951
12315.15039 0.144902
12316.19043 0.144863
12317.24023 0.144824
12318.28027 0.144785
12319.33008 0.144746
12320.37012 0.144701
12321.41992 0.144648
12322.45996 0.144595
12323.50977 0.144541
12324.54980 0.144488
12325.59961 0.14443
12326.63965 0.14437
12327.69043 0.144309
12328.73047 0.144249
12329.78027 0.144188
12330.82031 0.144132
12331.87012 0.144076
12332.91016 0.144021
12333.95996 0.143965
12335.00977 0.14391
12336.04980 0.143838
12337.09961 0.143766
12338.13965 0.143695
12339.19043 0.143623
12340.24023 0.143551
12341.28027 0.143478
12342.33008 0.143406
12343.37988 0.143333
12344.41992 0.143261
12345.46973 0.143189
12346.51953 0.143119
12347.55957 0.143049
12348.61035 0.14298
12349.66016 0.14291
12350.70996 0.142827
12351.75000 0.142739
12352.79980 0.142651
12353.84961 0.142562
12354.88965 0.142474
12355.94043 0.142386
12356.99023 0.142298
12358.04004 0.14221
12359.08984 0.142122
12360.12988 0.142033
12361.17969 0.141941
12362.23047 0.141849
12363.28027 0.141757
12364.33008 0.141665
12365.37012 0.141573
12366.41992 0.141479
12367.46973 0.141385
12368.51953 0.141291
12369.57031 0.141197
12370.62012 0.141096
12371.66992 0.14099
12372.71973 0.140885
12373.76953 0.140779
12374.82031 0.140673
12375.86035 0.140569
12376.91016 0.140464
12377.95996 0.14036
12379.00977 0.140256
12380.05957 0.140151
12381.11035 0.140042
12382.16016 0.139932
12383.20996 0.139822
12384.25977 0.139713
12385.30957 0.1396
12386.36035 0.139479
12387.41016 0.139359
12388.45996 0.139238
12389.50977 0.139117
12390.55957 0.139
12391.62012 0.138886
12392.66992 0.138772
12393.71973 0.138659
12394.76953 0.138545
12395.82031 0.138426
12396.87012 0.138305
12397.91992 0.138185
12398.96973 0.138065
12400.01953 0.137944
12401.08008 0.13781
12402.12988 0.137677
12403.17969 0.137544
12404.23047 0.13741
12405.28027 0.137276
12406.33008 0.137141
12407.38965 0.137007
12408.44043 0.136872
12409.49023 0.136737
12410.54004 0.136603
12411.59961 0.136469
12412.65039 0.136335
12413.70020 0.136202
12414.75000 0.136068
12415.80957 0.135927
12416.86035 0.135783
12417.91016 0.13564
12418.95996 0.135496
12420.01953 0.135353
12421.07031 0.135232
12422.12012 0.13511
12423.17969 0.134989
12424.23047 0.134868
12425.28027 0.134739
12426.33984 0.134589
12427.38965 0.134439
12428.45020 0.13429
12429.50000 0.13414
12430.54980 0.133996
12431.61035 0.133858
12432.66016 0.13372
12433.71973 0.133581
12434.76953 0.133443
12435.83008 0.133304
12436.87988 0.133165
12437.92969 0.133027
12438.99023 0.132888
12440.04004 0.13275
12441.09961 0.132612
12442.15039 0.132475
12443.20996 0.132337
12444.25977 0.132199
12445.32031 0.132057
12446.37012 0.131904
12447.42969 0.131751
12448.49023 0.131598
12449.54004 0.131445
12450.59961 0.131299
12451.65039 0.131158
12452.70996 0.131016
12453.75977 0.130875
12454.82031 0.130734
12455.87988 0.130588
12456.92969 0.130441
12457.99023 0.130294
12459.04004 0.130147
12460.09961 0.13
12461.16016 0.129848
12462.20996 0.129696
12463.26953 0.129544
12464.33008 0.129392
12465.38965 0.12925
12466.44043 0.129125
12467.50000 0.129
12468.55957 0.128875
12469.61035 0.12875
12470.66992 0.128606
12471.73047 0.128452
12472.79004 0.128298
12473.83984 0.128143
12474.90039 0.127989
12475.95996 0.127835
12477.01953 0.127681
12478.08008 0.127526
12479.12988 0.127372
12480.19043 0.127221
12481.25000 0.127085
12482.30957 0.12695
12483.37012 0.126814
12484.42969 0.126679
12485.48047 0.126543
12486.54004 0.126408
12487.59961 0.126273
12488.66016 0.126138
12489.71973 0.126003
12490.78027 0.125864
12491.83984 0.125724
12492.90039 0.125584
12493.95996 0.125444
12495.01953 0.125303
12496.08008 0.125166
12497.13965 0.125029
12498.20020 0.124892
12499.25000 0.124755
12500.32031 0.124618
12501.37012 0.124484
12502.44043 0.12435
12503.50000 0.124217
12504.55957 0.124083
12505.62012 0.123946
12506.67969 0.123808
12507.74023 0.123669
12508.79980 0.123531
12509.86035 0.123392
12510.91992 0.123255
12511.98047 0.123119
12513.04004 0.122982
12514.09961 0.122845
12515.16016 0.12271
12516.21973 0.122585
12517.29004 0.122459
12518.34961 0.122334
12519.41016 0.122209
12520.46973 0.122078
12521.53027 0.121942
12522.58984 0.121805
12523.66016 0.121669
12524.71973 0.121532
12525.78027 0.121408
12526.83984 0.121288
12527.90039 0.121168
12528.96973 0.121048
12530.03027 0.120929
12531.08984 0.120812
12532.15039 0.120696
12533.21973 0.120579
12534.28027 0.120463
12535.33984 0.120342
12536.41016 0.120213
12537.46973 0.120084
12538.53027 0.119954
12539.58984 0.119825
12540.66016 0.119702
12541.71973 0.119583
12542.79004 0.119465
12543.84961 0.119346
12544.91016 0.119227
12545.98047 0.119112
12547.04004 0.118998
12548.09961 0.118884
12549.16992 0.11877
12550.23047 0.118656
12551.29980 0.118542
12552.36035 0.118429
12553.41992 0.118316
12554.49023 0.118203
12555.54980 0.118094
12556.62012 0.117989
12557.67969 0.117884
12558.75000 0.117779
12559.80957 0.117674
12560.87988 0.117568
12561.94043 0.117463
12563.00977 0.117357
12564.07031 0.117252
12565.13965 0.117145
12566.20996 0.117027
12567.26953 0.116909
12568.33984 0.116791
12569.40039 0.116673
12570.46973 0.116562
12571.53027 0.116462
12572.59961 0.116361
12573.66992 0.116261
12574.73047 0.11616
12575.79980 0.116066
12576.87012 0.115973
12577.92969 0.115881
12579.00000 0.115789
12580.05957 0.115696
12581.12988 0.115597
12582.20020 0.115497
12583.25977 0.115398
12584.33008 0.115298
12585.40039 0.115203
12586.46973 0.115116
12587.53027 0.115029
12588.59961 0.114942
12589.66992 0.114855
12590.74023 0.114775
12591.79980 0.114697
12592.87012 0.114619
12593.94043 0.114541
12595.00977 0.114463
12596.08008 0.114371
12597.13965 0.114279
12598.20996 0.114187
12599.28027 0.114095
12600.34961 0.114009
12601.41992 0.113935
12602.49023 0.113862
12603.54980 0.113788
12604.62012 0.113714
12605.69043 0.113641
12606.75977 0.113568
12607.83008 0.113495
12608.90039 0.113422
12609.96973 0.113349
12611.04004 0.113277
12612.11035 0.113205
12613.17969 0.113133
12614.25000 0.113061
12615.32031 0.112992
12616.37988 0.112932
12617.45996 0.112871
12618.51953 0.11281
12619.58984 0.112749
12620.66992 0.112693
12621.74023 0.112638
12622.80957 0.112584
12623.87988 0.11253
12624.95020 0.112475
12626.01953 0.112414
12627.08984 0.112352
12628.16016 0.112291
12629.23047 0.112229
12630.29980 0.112171
12631.37012 0.112122
12632.44043 0.112073
12633.50977 0.112024
12634.58008 0.111975
12635.66016 0.111931
12636.73047 0.111891
12637.79980 0.111851
12638.87012 0.111811
12639.94043 0.11177
12641.00977 0.111724
12642.08984 0.111678
12643.16016 0.111631
12644.23047 0.111584
12645.29980 0.111541
12646.37988 0.111505
12647.45020 0.111469
12648.51953 0.111433
12649.58984 0.111397
12650.66992 0.111369
12651.74023 0.111345
12652.80957 0.11132
12653.87988 0.111296
12654.95996 0.111272
12656.03027 0.111244
12657.09961 0.111217
12658.17969 0.111189
12659.25000 0.111161
12660.32031 0.111135
12661.40039 0.111113
12662.46973 0.11109
12663.54004 0.111068
12664.62012 0.111046
12665.69043 0.11103
12666.76953 0.111017
12667.83984 0.111004
12668.91016 0.110991
12669.99023 0.110978
12671.05957 0.110963
12672.13965 0.110948
12673.20996 0.110933
12674.29004 0.110917
12675.36035 0.110906
12676.44043 0.110902
12677.50977 0.110898
12678.58984 0.110894
12679.66016 0.11089
12680.74023 0.110887
12681.80957 0.110885
12682.88965 0.110882
12683.95996 0.11088
12685.04004 0.110878
12686.11035 0.110877
12687.19043 0.110877
12688.26953 0.110876
12689.33984 0.110875
12690.41992 0.110876
12691.49023 0.110881
12692.57031 0.110885
12693.65039 0.110889
12694.71973 0.110893
12695.79980 0.110908
12696.87988 0.110927
12697.95020 0.110946
12699.03027 0.110964
12700.11035 0.110982
12701.17969 0.110986
12702.25977 0.11099
12703.33984 0.110993
12704.41016 0.110997
12705.49023 0.111005
12706.57031 0.111018
12707.65039 0.111031
12708.71973 0.111044
12709.79980 0.111057
12710.87988 0.111081
12711.95996 0.111106
12713.04004 0.111132
12714.11035 0.111157
12715.19043 0.111183
12716.26953 0.111206
12717.34961 0.111229
12718.42969 0.111253
12719.50000 0.111276
12720.58008 0.111298
12721.66016 0.11132
12722.74023 0.111342
12723.82031 0.111364
12724.90039 0.111386
12725.98047 0.111425
12727.05957 0.111466
12728.13965 0.111507
12729.20996 0.111549
12730.29004 0.111587
12731.37012 0.111616
12732.45020 0.111645
12733.53027 0.111675
12734.61035 0.111704
12735.69043 0.111739
12736.76953 0.111776
12737.84961 0.111814
12738.92969 0.111851
12740.00977 0.111889
12741.08984 0.111931
12742.16992 0.111973
12743.25000 0.112015
12744.33008 0.112057
12745.41992 0.112096
12746.50000 0.112131
12747.58008 0.112166
12748.66016 0.1122
12749.74023 0.112235
12750.82031 0.112279
12751.90039 0.112326
12752.98047 0.112373
12754.05957 0.112421
12755.15039 0.112469
12756.23047 0.112523
12757.30957 0.112578
12758.38965 0.112633
12759.46973 0.112688
12760.54980 0.112739
12761.63965 0.112785
12762.71973 0.112832
12763.79980 0.112879
12764.87988 0.112926
12765.96973 0.11298
12767.04980 0.113035
12768.12988 0.11309
12769.20996 0.113145
12770.29980 0.1132
12771.37988 0.113256
12772.45996 0.113311
12773.54980 0.113366
12774.62988 0.113422
12775.70996 0.113473
12776.79004 0.113523
12777.87988 0.113572
12778.95996 0.113622
12780.04980 0.113671
12781.12988 0.113734
12782.20996 0.113796
12783.29980 0.113858
12784.37988 0.11392
12785.46973 0.113984
12786.54980 0.11405
12787.62988 0.114115
12788.71973 0.114181
12789.79980 0.114246
12790.88965 0.11431
12791.96973 0.114374
12793.05957 0.114438
12794.13965 0.114502
12795.23047 0.114566
12796.30957 0.114631
12797.40039 0.114696
12798.48047 0.114761
12799.57031 0.114826
12800.65039 0.114901
12801.74023 0.114981
12802.82031 0.115061
12803.91016 0.115141
12804.99023 0.115221
12806.08008 0.115295
12807.16992 0.115368
12808.25000 0.115442
12809.33984 0.115515
12810.41992 0.115586
12811.50977 0.115651
12812.59961 0.115717
12813.67969 0.115782
12814.76953 0.115848
12815.86035 0.115927
12816.94043 0.11601
12818.03027 0.116093
12819.12012 0.116176
12820.20996 0.116258
12821.29004 0.116337
12822.37988 0.116416
12823.46973 0.116495
12824.54980 0.116573
12825.63965 0.116654
12826.73047 0.116736
12827.82031 0.116817
12828.90039 0.116899
12829.99023 0.116981
12831.08008 0.117065
12832.16992 0.11715
12833.25977 0.117235
12834.33984 0.117319
12835.42969 0.117401
12836.51953 0.117478
12837.61035 0.117555
12838.70020 0.117632
12839.79004 0.11771
12840.87988 0.117792
12841.95996 0.117876
12843.04980 0.117959
12844.13965 0.118043
12845.23047 0.118128
12846.32031 0.118217
12847.41016 0.118306
12848.50000 0.118394
12849.58984 0.118484
12850.67969 0.118567
12851.76953 0.118646
12852.86035 0.118726
12853.95020 0.118806
12855.04004 0.118886
12856.12988 0.118978
12857.21973 0.11907
12858.30957 0.119162
12859.40039 0.119254
12860.49023 0.119344
12861.58008 0.119431
12862.66992 0.119518
12863.75977 0.119605
12864.84961 0.119691
12865.94043 0.119782
12867.03027 0.119873
12868.12988 0.119964
12869.21973 0.120056
12870.30957 0.120142
12871.40039 0.120217
12872.49023 0.120291
12873.58008 0.120366
12874.66992 0.120441
12875.76953 0.120528
12876.86035 0.120621
12877.95020 0.120714
12879.04004 0.120806
12880.12988 0.120899
12881.23047 0.120984
12882.32031 0.12107
12883.41016 0.121155
12884.50000 0.121241
12885.59961 0.121325
12886.69043 0.121407
12887.78027 0.121489
12888.87012 0.121572
12889.96973 0.121654
12891.05957 0.121751
12892.15039 0.121849
12893.25000 0.121946
12894.33984 0.122044
12895.42969 0.122136
12896.53027 0.122218
12897.62012 0.1223
12898.70996 0.122382
12899.80957 0.122464
12900.90039 0.122544
12902.00000 0.122622
12903.08984 0.122701
12904.17969 0.12278
12905.28027 0.12286
12906.37012 0.122944
12907.46973 0.123027
12908.55957 0.123111
12909.66016 0.123194
12910.75000 0.123271
12911.83984 0.123345
12912.94043 0.123419
12914.04004 0.123493
12915.12988 0.123568
12916.21973 0.123648
12917.32031 0.123728
12918.41992 0.123808
12919.50977 0.123888
12920.61035 0.123967
12921.70020 0.124046
12922.79980 0.124125
12923.88965 0.124204
12924.99023 0.124283
12926.08984 0.124354
12927.17969 0.124424
12928.28027 0.124495
12929.37012 0.124566
12930.46973 0.124635
12931.57031 0.124701
12932.66016 0.124768
12933.75977 0.124834
12934.86035 0.1249
12935.95020 0.124974
12937.04980 0.125049
12938.15039 0.125124
12939.25000 0.125199
12940.33984 0.12527
12941.44043 0.12533
12942.54004 0.125389
12943.62988 0.125449
12944.73047 0.125509
12945.83008 0.125575
12946.92969 0.125644
12948.03027 0.125713
12949.12012 0.125782
12950.21973 0.125851
12951.32031 0.125921
12952.41992 0.125991
12953.51953 0.12606
12954.61035 0.12613
12955.70996 0.126194
12956.80957 0.126254
12957.91016 0.126315
12959.00977 0.126375
12960.11035 0.126435
12961.20996 0.126491
12962.30957 0.126547
12963.41016 0.126603
12964.50000 0.126659
12965.59961 0.126719
12966.70020 0.126784
12967.79980 0.126848
12968.90039 0.126913
12970.00000 0.126977
12971.09961 0.127028
12972.20020 0.127079
12973.29980 0.12713
12974.40039 0.127181
12975.50000 0.12723
12976.59961 0.127278
12977.70020 0.127326
12978.79980 0.127374
12979.90039 0.127422
12981.00000 0.127488
12982.11035 0.127557
12983.20996 0.127625
12984.30957 0.127693
12985.41016 0.127754
12986.50977 0.127801
12987.61035 0.127849
12988.70996 0.127897
12989.80957 0.127944
12990.91992 0.127983
12992.01953 0.12802
12993.12012 0.128056
12994.21973 0.128093
12995.32031 0.128134
12996.41992 0.128184
12997.53027 0.128234
12998.62988 0.128284
12999.73047 0.128334
13000.83008 0.128403
13001.92969 0.128478
13003.04004 0.128554
13004.13965 0.128629
13005.24023 0.128702
13006.34961 0.12877
13007.45020 0.128837
13008.54980 0.128904
13009.65039 0.128971
13010.75977 0.129052
13011.86035 0.129138
13012.95996 0.129224
13014.07031 0.129311
13015.16992 0.129395
13016.28027 0.129468
13017.37988 0.129541
13018.48047 0.129613
13019.58984 0.129686
13020.69043 0.129756
13021.79004 0.129825
13022.90039 0.129894
13024.00000 0.129963
13025.11035 0.130033
13026.20996 0.130113
13027.32031 0.130194
13028.41992 0.130274
13029.53027 0.130355
13030.62988 0.13043
13031.74023 0.130501
13032.83984 0.130573
13033.95020 0.130644
13035.04980 0.130715
13036.16016 0.130779
13037.25977 0.130843
13038.37012 0.130907
13039.46973 0.130971
13040.58008 0.131045
13041.67969 0.131127
13042.79004 0.13121
13043.90039 0.131292
13045.00000 0.131375
13046.11035 0.131446
13047.21973 0.131518
13048.32031 0.131589
13049.42969 0.131661
13050.54004 0.131731
13051.63965 0.131799
13052.75000 0.131868
13053.86035 0.131936
13054.95996 0.132005
13056.07031 0.132086
13057.17969 0.132169
13058.28027 0.132251
13059.38965 0.132333
13060.50000 0.132404
13061.61035 0.132462
13062.70996 0.13252
13063.82031 0.132578
13064.92969 0.132636
13066.04004 0.132712
13067.13965 0.132789
13068.25000 0.132867
13069.36035 0.132944
13070.46973 0.133017
13071.58008 0.133085
13072.69043 0.133152
13073.79004 0.13322
13074.90039 0.133287
13076.00977 0.133366
13077.12012 0.133445
13078.23047 0.133525
13079.33984 0.133605
13080.45020 0.133682
13081.55957 0.133755
13082.66992 0.133828
13083.78027 0.133901
13084.87988 0.133974
13085.99023 0.134043
13087.09961 0.134113
13088.20996 0.134183
13089.32031 0.134252
13090.42969 0.134324
13091.54004 0.134399
13092.65039 0.134475
13093.75977 0.13455
13094.87012 0.134626
13095.98047 0.134698
13097.08984 0.134771
13098.20996 0.134843
13099.32031 0.134915
13100.42969 0.134985
13101.54004 0.135051
13102.65039 0.135116
13103.75977 0.135182
13104.87012 0.135247
13105.98047 0.135323
13107.08984 0.135399
13108.20996 0.135475
13109.32031 0.135552
13110.42969 0.135624
13111.54004 0.135689
13112.65039 0.135754
13113.75977 0.135819
13114.87988 0.135884
13115.99023 0.135956
13117.09961 0.136027
13118.20996 0.136099
13119.33008 0.136171
13120.44043 0.136245
13121.54980 0.136323
13122.66016 0.136402
13123.78027 0.13648
13124.88965 0.136558
13126.00000 0.136614
13127.11035 0.136667
13128.23047 0.13672
13129.33984 0.136772
13130.45020 0.136833
13131.57031 0.136905
13132.67969 0.136976
13133.79004 0.137048
13134.91016 0.13712
13136.01953 0.137194
13137.13965 0.137269
13138.25000 0.137344
13139.36035 0.137419
13140.48047 0.137491
13141.58984 0.137557
13142.70996 0.137623
13143.82031 0.137688
13144.94043 0.137755
13146.04980 0.137821
13147.16992 0.137887
13148.28027 0.137953
13149.40039 0.13802
13150.50977 0.138089
13151.62988 0.138163
13152.74023 0.138236
13153.86035 0.13831
13154.96973 0.138383
13156.08984 0.138452
13157.20020 0.138521
13158.32031 0.13859
13159.42969 0.138659
13160.54980 0.138728
13161.66992 0.138798
13162.78027 0.138868
13163.90039 0.138937
13165.00977 0.139008
13166.12988 0.139084
13167.25000 0.139161
13168.36035 0.139238
13169.48047 0.139315
13170.59961 0.139384
13171.70996 0.139447
13172.83008 0.139511
13173.95020 0.139574
13175.07031 0.139638
13176.17969 0.139721
13177.29980 0.139803
13178.41992 0.139886
13179.53027 0.139969
13180.65039 0.140052
13181.76953 0.140135
13182.88965 0.140218
13184.00977 0.140302
13185.12012 0.140382
13186.24023 0.140443
13187.36035 0.140504
13188.48047 0.140564
13189.59961 0.140625
13190.70996 0.140698
13191.83008 0.140777
13192.95020 0.140857
13194.07031 0.140937
13195.19043 0.141016
13196.30957 0.141094
13197.42969 0.141172
13198.54980 0.141249
13199.66992 0.141327
13200.79004 0.141406
13201.90039 0.141487
13203.01953 0.141568
13204.13965 0.141648
13205.25977 0.141733
13206.37988 0.141829
13207.50000 0.141926
13208.62012 0.142022
13209.74023 0.142119
13210.86035 0.142214
13211.98047 0.142309
13213.09961 0.142403
13214.21973 0.142498
13215.33984 0.142586
13216.45996 0.142661
13217.58984 0.142736
13218.70996 0.142811
13219.83008 0.142886
13220.95020 0.142979
13222.07031 0.143075
13223.19043 0.14317
13224.30957 0.143266
13225.42969 0.143361
13226.54980 0.143455
13227.67969 0.143548
13228.79980 0.143641
13229.91992 0.143734
13231.04004 0.143821
13232.16016 0.143908
13233.29004 0.143994
13234.41016 0.144081
13235.53027 0.144169
13236.65039 0.144259
13237.78027 0.144349
13238.90039 0.144439
13240.01953 0.144529
13241.13965 0.144628
13242.26953 0.144728
13243.38965 0.144827
13244.50977 0.144926
13245.62988 0.145014
13246.75977 0.145095
13247.87988 0.145175
13249.00000 0.145255
13250.12988 0.145337
13251.25000 0.145429
13252.37012 0.145521
13253.50000 0.145613
13254.62012 0.145705
13255.75000 0.145804
13256.87012 0.145907
13258.00000 0.146009
13259.12012 0.146112
13260.24023 0.146213
13261.37012 0.146305
13262.49023 0.146398
13263.62012 0.146491
13264.74023 0.146583
13265.87012 0.146678
13266.99023 0.146773
13268.12012 0.146868
13269.24023 0.146962
13270.37012 0.147059
13271.49023 0.147159
13272.62012 0.147258
13273.74023 0.147358
13274.87012 0.147458
13275.99023 0.147542
13277.12012 0.147624
13278.25000 0.147707
13279.37012 0.147789
13280.50000 0.147877
13281.62012 0.147972
13282.75000 0.148067
13283.87988 0.148162
13285.00000 0.148257
13286.12988 0.148361
13287.25977 0.148465
13288.37988 0.148568
13289.50977 0.148672
13290.63965 0.148766
13291.75977 0.148851
13292.88965 0.148936
13294.01953 0.149022
13295.15039 0.149107
13296.26953 0.149188
13297.40039 0.14927
13298.53027 0.149352
13299.66016 0.149434
13300.78027 0.149524
13301.91016 0.149617
13303.04004 0.14971
13304.16992 0.149804
13305.29980 0.149896
13306.41992 0.149983
13307.54980 0.150071
13308.67969 0.150159
13309.80957 0.150247
13310.94043 0.150326
13312.07031 0.150403
13313.20020 0.150481
13314.32031 0.150558
13315.45020 0.150637
13316.58008 0.150716
13317.70996 0.150796
13318.83984 0.150875
13319.96973 0.150955
13321.09961 0.151034
13322.23047 0.151114
13323.36035 0.151193
13324.49023 0.151273
13325.62012 0.151353
13326.75000 0.151432
13327.87988 0.151512
13329.00977 0.151592
13330.13965 0.151672
13331.26953 0.151757
13332.40039 0.151842
13333.53027 0.151927
13334.66016 0.152012
13335.79004 0.152084
13336.91992 0.152151
13338.04980 0.152218
13339.17969 0.152285
13340.32031 0.152352
13341.45020 0.15242
13342.58008 0.152487
13343.70996 0.152555
13344.83984 0.152623
13345.96973 0.152696
13347.09961 0.15277
13348.24023 0.152844
13349.37012 0.152918
13350.50000 0.152989
13351.62988 0.153057
13352.75977 0.153125
13353.90039 0.153193
13355.03027 0.153261
13356.16016 0.153323
13357.29004 0.153386
13358.42969 0.153448
13359.55957 0.15351
13360.69043 0.153579
13361.83008 0.153652
13362.95996 0.153725
13364.08984 0.153799
13365.21973 0.153868
13366.36035 0.153923
13367.49023 0.153978
13368.62988 0.154032
13369.75977 0.154087
13370.88965 0.154141
13372.03027 0.154195
13373.16016 0.154249
13374.29004 0.154304
13375.42969 0.15436
13376.55957 0.154418
13377.70020 0.154477
13378.83008 0.154536
13379.96973 0.154595
13381.09961 0.154636
13382.24023 0.154676
13383.37012 0.154716
13384.50000 0.154756
13385.63965 0.154805
13386.78027 0.15486
13387.91016 0.154915
13389.04004 0.15497
13390.17969 0.155024
13391.32031 0.15507
13392.45020 0.155116
13393.58984 0.155162
13394.71973 0.155207
13395.86035 0.155262
13397.00000 0.15532
13398.12988 0.155378
13399.26953 0.155436
13400.40039 0.155487
13401.54004 0.155526
13402.67969 0.155565
13403.80957 0.155604
13404.95020 0.155642
13406.08984 0.155702
13407.21973 0.155762
13408.36035 0.155823
13409.50000 0.155884
13410.62988 0.155931
13411.76953 0.155969
13412.91016 0.156006
13414.04980 0.156044
13415.17969 0.156082
13416.32031 0.156124
13417.45996 0.156167
13418.59961 0.156209
13419.73047 0.156251
13420.87012 0.156301
13422.00977 0.156352
13423.15039 0.156403
13424.29004 0.156454
13425.41992 0.156501
13426.55957 0.15654
13427.70020 0.156579
13428.83984 0.156618
13429.98047 0.156657
13431.12012 0.15669
13432.25977 0.156722
13433.40039 0.156755
13434.54004 0.156787
13435.66992 0.156832
13436.80957 0.156885
13437.95020 0.156938
13439.08984 0.156991
13440.23047 0.157037
13441.37012 0.15706
13442.50977 0.157082
13443.65039 0.157104
13444.79004 0.157126
13445.92969 0.15716
13447.07031 0.157197
13448.20996 0.157234
13449.34961 0.157271
13450.49023 0.157305
13451.62988 0.157336
13452.76953 0.157366
13453.91992 0.157397
13455.05957 0.157428
13456.20020 0.15746
13457.33984 0.157493
13458.48047 0.157525
13459.62012 0.157557
13460.75977 0.157589
13461.90039 0.15762
13463.04004 0.157651
13464.19043 0.157682
13465.33008 0.157712
13466.46973 0.157741
13467.61035 0.15777
13468.75000 0.157799
13469.90039 0.157828
13471.04004 0.157853
13472.17969 0.157878
13473.32031 0.157904
13474.45996 0.157928
13475.61035 0.157958
13476.75000 0.15799
13477.88965 0.158023
13479.04004 0.158056
13480.17969 0.158088
13481.32031 0.158119
13482.45996 0.158149
13483.61035 0.15818
13484.75000 0.15821
13485.90039 0.158238
13487.04004 0.158265
13488.17969 0.158293
13489.33008 0.15832
13490.46973 0.158347
13491.61035 0.158375
13492.75977 0.158403
13493.90039 0.158431
13495.04980 0.158458
13496.19043 0.158478
13497.33008 0.158498
13498.48047 0.158517
13499.62012 0.158537
13500.76953 0.158566
13501.91016 0.1586
13503.05957 0.158634
13504.20020 0.158667
13505.34961 0.158693
13506.49023 0.158698
13507.63965 0.158704
13508.79004 0.15871
13509.92969 0.158716
13511.08008 0.158737
13512.21973 0.15876
13513.37012 0.158782
13514.50977 0.158805
13515.66016 0.158828
13516.80957 0.158853
13517.95020 0.158877
13519.09961 0.158901
13520.24023 0.158923
13521.38965 0.158935
13522.54004 0.158946
13523.67969 0.158958
13524.83008 0.158969
13525.98047 0.158986
13527.12988 0.159003
13528.26953 0.15902
13529.41992 0.159038
13530.57031 0.159058
13531.70996 0.159081
13532.86035 0.159104
13534.00977 0.159127
13535.16016 0.159147
13536.29980 0.15915
13537.45020 0.159152
13538.59961 0.159155
13539.75000 0.159157
13540.90039 0.159178
13542.04004 0.159204
13543.19043 0.15923
13544.33984 0.159256
13545.49023 0.159278
13546.63965 0.159296
13547.79004 0.159314
13548.94043 0.159332
13550.08008 0.159348
13551.23047 0.159344
13552.37988 0.159341
13553.53027 0.159337
13554.67969 0.159333
13555.83008 0.159347
13556.98047 0.159366
13558.12988 0.159386
13559.28027 0.159406
13560.42969 0.159427
13561.58008 0.159449
13562.73047 0.159471
13563.87988 0.159493
13565.03027 0.159515
13566.17969 0.159525
13567.33008 0.159535
13568.48047 0.159545
13569.62988 0.159555
13570.78027 0.159573
13571.92969 0.159594
13573.08008 0.159616
13574.23047 0.159637
13575.38965 0.159655
13576.54004 0.159666
13577.69043 0.159676
13578.83984 0.159687
13579.99023 0.159697
13581.13965 0.159703
13582.29004 0.159709
13583.45020 0.159714
13584.59961 0.15972
13585.75000 0.15974
13586.90039 0.159767
13588.04980 0.159794
13589.20996 0.159821
13590.36035 0.159845
13591.50977 0.159862
13592.66016 0.15988
13593.82031 0.159898
13594.96973 0.159916
13596.12012 0.159919
13597.26953 0.159922
13598.42969 0.159925
13599.58008 0.159927
13600.73047 0.159946
13601.88965 0.159973
13603.04004 0.160001
13604.19043 0.160028
13605.34961 0.160051
13606.50000 0.160065
13607.66016 0.160079
13608.80957 0.160093
13609.95996 0.160107
13611.12012 0.160124
13612.26953 0.160141
13613.41992 0.160159
13614.58008 0.160176
13615.73047 0.16018
13616.88965 0.160176
13618.04004 0.160172
13619.20020 0.160169
13620.34961 0.160175
13621.50977 0.160203
13622.66016 0.160231
13623.82031 0.160259
13624.96973 0.160287
13626.12988 0.160305
13627.28027 0.160323
13628.44043 0.160341
13629.59961 0.160359
13630.75000 0.16038
13631.91016 0.160401
13633.05957 0.160423
13634.21973 0.160444
13635.37012 0.160465
13636.53027 0.160481
13637.69043 0.160498
13638.83984 0.160515
13640.00000 0.160531
13641.16016 0.160548
13642.30957 0.160564
13643.46973 0.16058
13644.62988 0.160597
13645.79004 0.160626
13646.94043 0.160661
13648.09961 0.160696
13649.25977 0.160732
13650.41016 0.160762
13651.57031 0.160784
13652.73047 0.160806
13653.88965 0.160827
13655.04004 0.160849
13656.20020 0.160872
13657.36035 0.160895
13658.51953 0.160918
13659.67969 0.160941
13660.83008 0.160968
13661.99023 0.160996
13663.15039 0.161023
13664.30957 0.161051
13665.46973 0.161082
13666.62988 0.161117
13667.79004 0.161152
13668.95020 0.161187
13670.11035 0.161219
13671.25977 0.161221
13672.41992 0.161224
13673.58008 0.161226
13674.74023 0.161229
13675.90039 0.161253
13677.05957 0.161283
13678.21973 0.161313
13679.37988 0.161343
13680.54004 0.161376
13681.70020 0.161413
13682.86035 0.16145
13684.01953 0.161487
13685.17969 0.16152
13686.33984 0.161536
13687.50000 0.161552
13688.66016 0.161568
13689.83008 0.161584
13690.99023 0.161597
13692.15039 0.16161
13693.30957 0.161622
13694.46973 0.161635
13695.62988 0.161657
13696.79004 0.161686
13697.95020 0.161715
13699.11035 0.161744
13700.28027 0.161767
13701.44043 0.161768
13702.59961 0.161768
13703.75977 0.161769
13704.91992 0.16177
13706.08984 0.161802
13707.25000 0.161836
13708.41016 0.161871
13709.57031 0.161905
13710.74023 0.161933
13711.90039 0.161956
13713.05957 0.16198
13714.21973 0.162003
13715.38965 0.162018
13716.54980 0.162017
13717.70996 0.162015
13718.87988 0.162013
13720.04004 0.162012
13721.20020 0.16202
13722.37012 0.162027
13723.53027 0.162035
13724.69043 0.162042
13725.86035 0.16205
13727.01953 0.162057
13728.19043 0.162065
13729.34961 0.162072
13730.50977 0.162083
13731.67969 0.162097
13732.83984 0.162112
13734.00977 0.162126
13735.16992 0.162141
13736.33984 0.162153
13737.50000 0.162165
13738.66992 0.162178
13739.83008 0.16219
13741.00000 0.162189
13742.16016 0.162186
13743.33008 0.162183
13744.49023 0.16218
13745.66016 0.162181
13746.82031 0.162184
13747.99023 0.162187
13749.15039 0.16219
13750.32031 0.162193
13751.49023 0.162195
13752.65039 0.162197
13753.82031 0.162199
13754.99023 0.162201
13756.15039 0.162208
13757.32031 0.162215
13758.48047 0.162223
13759.65039 0.16223
13760.82031 0.162225
13761.98047 0.162215
13763.15039 0.162205
13764.32031 0.162195
13765.49023 0.162197
13766.65039 0.162218
13767.82031 0.16224
13768.99023 0.162261
13770.16016 0.162278
13771.32031 0.16227
13772.49023 0.162262
13773.66016 0.162254
13774.83008 0.162247
13776.00000 0.162263
13777.16016 0.162284
13778.33008 0.162304
13779.50000 0.162325
13780.66992 0.162347
13781.83984 0.162371
13783.00977 0.162395
13784.16992 0.162419
13785.33984 0.162439
13786.50977 0.162452
13787.67969 0.162466
13788.84961 0.162479
13790.01953 0.162492
13791.19043 0.162511
13792.36035 0.16253
13793.53027 0.162549
13794.70020 0.162568
13795.87012 0.162602
13797.04004 0.16264
13798.20996 0.162679
13799.37988 0.162717
13800.54980 0.162744
13801.71973 0.162757
13802.88965 0.16277
13804.05957 0.162783
13805.23047 0.162797
13806.40039 0.162813
13807.57031 0.162829
13808.74023 0.162846
13809.91016 0.162862
13811.08008 0.162881
13812.25000 0.162901
13813.42969 0.16292
13814.59961 0.162939
13815.76953 0.162974
13816.94043 0.163016
13818.11035 0.163058
13819.28027 0.1631
13820.45996 0.163133
13821.62988 0.163151
13822.79980 0.163169
13823.96973 0.163187
13825.13965 0.163207
13826.32031 0.16324
13827.49023 0.163273
13828.66016 0.163306
13829.83008 0.16334
13831.00977 0.163378
13832.17969 0.163418
13833.34961 0.163458
13834.53027 0.163497
13835.70020 0.163538
13836.87012 0.16358
13838.04004 0.163622
13839.21973 0.163664
13840.38965 0.163708
13841.57031 0.163757
13842.74023 0.163807
13843.91016 0.163856
13845.08984 0.163905
13846.25977 0.163945
13847.42969 0.163985
13848.61035 0.164026
13849.78027 0.164066
13850.95996 0.164117
13852.12988 0.164171
13853.30957 0.164225
13854.48047 0.164279
13855.66016 0.164323
13856.83008 0.164358
13858.00977 0.164394
13859.17969 0.164429
13860.36035 0.164476
13861.53027 0.164547
13862.70996 0.164619
13863.87988 0.16469
13865.05957 0.16476
13866.23047 0.164796
13867.41016 0.164832
13868.58984 0.164868
13869.75977 0.164904
13870.94043 0.164969
13872.11035 0.165043
13873.29004 0.165116
13874.46973 0.165189
13875.63965 0.165252
13876.82031 0.165307
13878.00000 0.165361
13879.16992 0.165416
13880.34961 0.165475
13881.53027 0.165544
13882.70996 0.165613
13883.87988 0.165682
13885.05957 0.16575
13886.24023 0.165798
13887.41992 0.165846
13888.58984 0.165894
13889.76953 0.165942
13890.95020 0.166011
13892.12988 0.166085
13893.29980 0.166159
13894.48047 0.166234
13895.66016 0.166295
13896.83984 0.166346
13898.01953 0.166396
13899.20020 0.166447
13900.37012 0.166504
13901.54980 0.166575
13902.73047 0.166647
13903.91016 0.166718
13905.08984 0.166788
13906.26953 0.166849
13907.45020 0.166909
13908.62988 0.166969
13909.80957 0.16703
13910.99023 0.167099
13912.16992 0.16717
13913.34961 0.167242
13914.53027 0.167313
13915.70996 0.16738
13916.87988 0.167444
13918.07031 0.167508
13919.25000 0.167573
13920.42969 0.167641
13921.61035 0.167716
13922.79004 0.167791
13923.96973 0.167866
13925.15039 0.167939
13926.33008 0.168002
13927.50977 0.168064
13928.69043 0.168126
13929.87012 0.168189
13931.04980 0.168246
13932.23047 0.168302
13933.41992 0.168359
13934.59961 0.168415
13935.78027 0.168488
13936.95996 0.168569
13938.13965 0.16865
13939.32031 0.168732
13940.50977 0.168806
13941.69043 0.16887
13942.87012 0.168935
13944.04980 0.168999
13945.24023 0.169063
13946.41992 0.169126
13947.59961 0.169189
13948.78027 0.169252
13949.96973 0.169314
13951.15039 0.169404
13952.33008 0.169494
13953.51953 0.169584
13954.70020 0.169675
13955.87988 0.169735
13957.07031 0.169786
13958.25000 0.169837
13959.42969 0.169887
13960.62012 0.169946
13961.79980 0.170014
13962.98047 0.170081
13964.16992 0.170148
13965.34961 0.170217
13966.54004 0.170293
13967.71973 0.170369
13968.91016 0.170444
13970.08984 0.170518
13971.26953 0.17056
13972.45996 0.170603
13973.63965 0.170645
13974.83008 0.170688
13976.00977 0.170745
13977.20020 0.170804
13978.37988 0.170863
13979.57031 0.170923
13980.75000 0.17099
13981.94043 0.171061
13983.12988 0.171133
13984.30957 0.171204
13985.50000 0.171267
13986.67969 0.171317
13987.87012 0.171367
13989.05957 0.171418
13990.24023 0.171471
13991.42969 0.171535
13992.61035 0.1716
13993.79980 0.171664
13994.99023 0.171729
13996.16992 0.171803
13997.36035 0.171878
13998.54980 0.171952
13999.74023 0.172027
14000.91992 0.172088
14002.11035 0.172145
14003.29980 0.172201
14004.48047 0.172258
14005.66992 0.172312
14006.86035 0.172363
14008.04980 0.172415
14009.24023 0.172466
14010.41992 0.172519
14011.61035 0.172573
14012.79980 0.172628
14013.99023 0.172683
14015.17969 0.172736
14016.36035 0.172781
14017.54980 0.172825
14018.74023 0.17287
14019.92969 0.172914
14021.12012 0.172965
14022.30957 0.173016
14023.50000 0.173066
14024.69043 0.173117
14025.87988 0.173174
14027.07031 0.173232
14028.25000 0.173291
14029.44043 0.173349
14030.62988 0.173402
14031.82031 0.17345
14033.00977 0.173498
14034.20020 0.173547
14035.38965 0.173597
14036.58008 0.173654
14037.76953 0.17371
14038.95996 0.173766
14040.15039 0.173824
14041.34961 0.173889
14042.54004 0.173955
14043.73047 0.17402
14044.91992 0.174086
14046.11035 0.174135
14047.29980 0.174183
14048.49023 0.174231
14049.67969 0.174279
14050.87012 0.174332
14052.07031 0.174386
14053.25977 0.17444
14054.45020 0.174494
14055.63965 0.174553
14056.83008 0.174614
14058.01953 0.174676
14059.21973 0.174738
14060.41016 0.174801
14061.59961 0.174868
14062.79004 0.174934
14063.99023 0.175001
14065.17969 0.175065
14066.37012 0.175117
14067.55957 0.175168
14068.75977 0.17522
14069.95020 0.175272
14071.13965 0.175331
14072.33984 0.175391
14073.53027 0.175451
14074.71973 0.175511
14075.91992 0.175576
14077.11035 0.175643
14078.29980 0.175709
14079.50000 0.175776
14080.69043 0.175834
14081.87988 0.175887
14083.08008 0.175939
14084.26953 0.175992
14085.46973 0.176052
14086.66016 0.176123
14087.86035 0.176195
14089.04980 0.176267
14090.25000 0.176336
14091.44043 0.1764
14092.63965 0.176463
14093.83008 0.176526
14095.03027 0.176589
14096.21973 0.176646
14097.41992 0.176703
14098.61035 0.17676
14099.80957 0.176817
14101.00000 0.176876
14102.20020 0.176935
14103.38965 0.176995
14104.58984 0.177054
14105.79004 0.177114
14106.98047 0.177175
14108.17969 0.177236
14109.37012 0.177297
14110.57031 0.177351
14111.76953 0.177397
14112.95996 0.177443
14114.16016 0.177489
14115.36035 0.177545
14116.54980 0.177624
14117.75000 0.177702
14118.95020 0.177781
14120.15039 0.177856
14121.33984 0.177907
14122.54004 0.177958
14123.74023 0.178008
14124.94043 0.178059
14126.12988 0.178104
14127.33008 0.17815
14128.53027 0.178195
14129.73047 0.17824
14130.92969 0.178297
14132.12988 0.178358
14133.32031 0.178418
14134.51953 0.178479
14135.71973 0.178538
14136.91992 0.178597
14138.12012 0.178655
14139.32031 0.178714
14140.51953 0.178765
14141.70996 0.178806
14142.91016 0.178847
14144.11035 0.178888
14145.30957 0.178932
14146.50977 0.178981
14147.70996 0.179031
14148.91016 0.179081
14150.11035 0.179132
14151.30957 0.17919
14152.50977 0.179248
14153.70996 0.179306
14154.91016 0.179364
14156.11035 0.179407
14157.30957 0.17945
14158.50977 0.179493
14159.70996 0.179535
14160.91016 0.179588
14162.11035 0.179643
14163.32031 0.179699
14164.51953 0.179754
14165.71973 0.179806
14166.91992 0.179853
14168.12012 0.179901
14169.32031 0.17995
14170.51953 0.179989
14171.71973 0.180017
14172.92969 0.180045
14174.12988 0.180073
14175.33008 0.180107
14176.53027 0.180158
14177.73047 0.180208
14178.94043 0.180258
14180.13965 0.180309
14181.33984 0.180367
14182.54004 0.180424
14183.75000 0.180482
14184.95020 0.18054
14186.15039 0.180579
14187.34961 0.180618
14188.55957 0.180657
14189.75977 0.180696
14190.95996 0.18072
14192.16992 0.18074
14193.37012 0.18076
14194.57031 0.18078
14195.78027 0.180825
14196.98047 0.180884
14198.19043 0.180943
14199.38965 0.181002
14200.58984 0.181041
14201.79980 0.181061
14203.00000 0.181081
14204.20996 0.181101
14205.41016 0.181121
14206.62012 0.181143
14207.82031 0.181164
14209.03027 0.181186
14210.23047 0.181214
14211.44043 0.181268
14212.63965 0.181323
14213.84961 0.181378
14215.04980 0.181432
14216.25977 0.181458
14217.45996 0.181485
14218.66992 0.181512
14219.87012 0.181538
14221.08008 0.181564
14222.29004 0.181589
14223.49023 0.181615
14224.70020 0.181641
14225.90039 0.18167
14227.11035 0.1817
14228.32031 0.18173
14229.51953 0.18176
14230.73047 0.181777
14231.94043 0.181784
14233.13965 0.181792
14234.34961 0.1818
14235.55957 0.181818
14236.75977 0.181848
14237.96973 0.181879
14239.17969 0.18191
14240.38965 0.18194
14241.58984 0.181972
14242.79980 0.182003
14244.00977 0.182034
14245.21973 0.182063
14246.41992 0.182077
14247.62988 0.182091
14248.83984 0.182106
14250.04980 0.18212
14251.25977 0.182147
14252.46973 0.182173
14253.66992 0.1822
14254.87988 0.182226
14256.08984 0.182243
14257.29980 0.182258
14258.50977 0.182274
14259.71973 0.182289
14260.92969 0.182291
14262.13965 0.182289
14263.34961 0.182287
14264.55957 0.182285
14265.76953 0.182296
14266.98047 0.182316
14268.19043 0.182336
14269.40039 0.182355
14270.61035 0.182372
14271.82031 0.182386
14273.03027 0.1824
14274.24023 0.182414
14275.45020 0.182421
14276.66016 0.182416
14277.87012 0.18241
14279.08008 0.182405
14280.29004 0.1824
14281.50000 0.182394
14282.70996 0.182388
14283.91992 0.182382
14285.12988 0.182377
14286.33984 0.182384
14287.55957 0.182391
14288.76953 0.182397
14289.98047 0.182404
14291.19043 0.182382
14292.40039 0.182359
14293.62012 0.182336
14294.83008 0.182312
14296.04004 0.182302
14297.25000 0.182294
14298.45996 0.182286
14299.67969 0.182278
14300.88965 0.182276
14302.09961 0.182276
14303.30957 0.182276
14304.53027 0.182276
14305.74023 0.182256
14306.95020 0.182223
14308.16992 0.18219
14309.37988 0.182157
14310.58984 0.182131
14311.80957 0.18211
14313.01953 0.18209
14314.23047 0.18207
14315.45020 0.182052
14316.66016 0.18204
14317.87988 0.182027
14319.08984 0.182015
14320.29980 0.181997
14321.51953 0.181963
14322.73047 0.181929
14323.95020 0.181895
14325.16016 0.181862
14326.37988 0.181836
14327.58984 0.18181
14328.80957 0.181784
14330.01953 0.181757
14331.24023 0.181711
14332.45020 0.181666
14333.66992 0.18162
14334.87988 0.181574
14336.09961 0.181545
14337.30957 0.181519
14338.53027 0.181492
14339.75000 0.181465
14340.95996 0.181387
14342.17969 0.181295
14343.38965 0.181204
14344.61035 0.181112
14345.83008 0.181066
14347.04004 0.181042
14348.25977 0.181018
14349.48047 0.180994
14350.69043 0.18095
14351.91016 0.180892
14353.12988 0.180834
14354.33984 0.180776
14355.55957 0.180714
14356.78027 0.180647
14358.00000 0.18058
14359.20996 0.180513
14360.42969 0.180459
14361.65039 0.180427
14362.87012 0.180395
14364.08008 0.180363
14365.29980 0.180319
14366.51953 0.180236
14367.74023 0.180153
14368.95996 0.180071
14370.17969 0.17999
14371.38965 0.179925
14372.61035 0.17986
14373.83008 0.179795
14375.04980 0.179729
14376.26953 0.179663
14377.49023 0.179598
14378.70996 0.179532
14379.92969 0.179466
14381.15039 0.179388
14382.37012 0.179309
14383.58984 0.17923
14384.80957 0.179151
14386.03027 0.179082
14387.25000 0.179015
14388.45996 0.178948
14389.67969 0.178881
14390.91016 0.178808
14392.12988 0.178733
14393.34961 0.178659
14394.57031 0.178584
14395.79004 0.178505
14397.00977 0.178423
14398.23047 0.17834
14399.45020 0.178258
14400.66992 0.178169
14401.88965 0.178074
14403.11035 0.177979
14404.33008 0.177884
14405.55957 0.177799
14406.78027 0.177724
14408.00000 0.17765
14409.21973 0.177576
14410.44043 0.177505
14411.66992 0.177438
14412.88965 0.177372
14414.11035 0.177306
14415.33008 0.177232
14416.54980 0.177135
14417.78027 0.177037
14419.00000 0.17694
14420.21973 0.176849
14421.44043 0.176789
14422.66992 0.176729
14423.88965 0.176669
14425.11035 0.176605
14426.33984 0.176511
14427.55957 0.176417
14428.78027 0.176322
14430.00977 0.176228
14431.23047 0.176146
14432.45020 0.176063
14433.67969 0.17598
14434.90039 0.175898
14436.12988 0.175806
14437.34961 0.175714
14438.57031 0.175621
14439.79980 0.175529
14441.01953 0.175442
14442.25000 0.175356
14443.46973 0.17527
14444.70020 0.175184
14445.91992 0.175103
14447.15039 0.175022
14448.37012 0.174943
14449.59961 0.174862
14450.82031 0.174785
14452.04980 0.174709
14453.26953 0.174633
14454.50000 0.174557
14455.71973 0.174474
14456.95020 0.174387
14458.17969 0.174299
14459.40039 0.174212
14460.62988 0.174133
14461.84961 0.174062
14463.08008 0.173991
14464.30957 0.17392
14465.53027 0.173824
14466.75977 0.173696
14467.99023 0.173568
14469.20996 0.17344
14470.44043 0.173332
14471.66992 0.173263
14472.90039 0.173194
14474.12012 0.173124
14475.34961 0.173057
14476.58008 0.172995
14477.79980 0.172932
14479.03027 0.17287
14480.25977 0.172805
14481.49023 0.172731
14482.71973 0.172657
14483.94043 0.172583
14485.16992 0.172509
14486.40039 0.172438
14487.62988 0.172367
14488.86035 0.172295
14490.08984 0.172223
14491.32031 0.172134
14492.54004 0.172045
14493.76953 0.171956
14495.00000 0.171867
14496.23047 0.171795
14497.45996 0.171724
14498.69043 0.171652
14499.91992 0.17158
14501.15039 0.171498
14502.37988 0.171415
14503.61035 0.171331
14504.83984 0.171248
14506.07031 0.17118
14507.29980 0.171114
14508.53027 0.171049
14509.75977 0.170983
14510.99023 0.170917
14512.21973 0.170852
14513.45020 0.170787
14514.67969 0.170721
14515.91016 0.170648
14517.13965 0.170572
14518.37012 0.170496
14519.59961 0.170421
14520.83984 0.170359
14522.07031 0.170304
14523.29980 0.170249
14524.53027 0.170193
14525.75977 0.170135
14526.99023 0.170076
14528.23047 0.170016
14529.45996 0.169956
14530.69043 0.169881
14531.91992 0.169794
14533.15039 0.169707
14534.38965 0.169619
14535.62012 0.169549
14536.84961 0.169495
14538.08008 0.169441
14539.32031 0.169387
14540.54980 0.169335
14541.78027 0.169287
14543.01953 0.169238
14544.25000 0.16919
14545.48047 0.169137
14546.71973 0.169077
14547.95020 0.169018
14549.17969 0.168958
14550.41992 0.168898
14551.65039 0.168838
14552.87988 0.168777
14554.12012 0.168717
14555.34961 0.168664
14556.58984 0.168632
14557.82031 0.1686
14559.05957 0.168568
14560.29004 0.168532
14561.53027 0.168483
14562.75977 0.168434
14563.99023 0.168385
14565.23047 0.168333
14566.45996 0.168265
14567.70020 0.168197
14568.94043 0.168129
14570.16992 0.168067
14571.41016 0.168041
14572.63965 0.168016
14573.87988 0.167991
14575.11035 0.167963
14576.34961 0.167915
14577.58008 0.167868
14578.82031 0.16782
14580.05957 0.167773
14581.29004 0.167741
14582.53027 0.167709
14583.76953 0.167678
14585.00000 0.167646
14586.24023 0.167614
14587.48047 0.167581
14588.70996 0.167549
14589.95020 0.167516
14591.19043 0.167476
14592.42969 0.167436
14593.66016 0.167396
14594.90039 0.167356
14596.13965 0.167329
14597.37988 0.167304
14598.61035 0.167278
14599.84961 0.167253
14601.08984 0.167223
14602.33008 0.167192
14603.57031 0.167161
14604.79980 0.16713
14606.04004 0.167111
14607.28027 0.167095
14608.51953 0.167078
14609.75977 0.167062
14611.00000 0.167043
14612.24023 0.167023
14613.48047 0.167004
14614.70996 0.166984
14615.95020 0.166968
14617.19043 0.166953
14618.42969 0.166937
14619.66992 0.166922
14620.91016 0.166912
14622.15039 0.166904
14623.38965 0.166895
14624.62988 0.166887
14625.87012 0.166871
14627.11035 0.166852
14628.34961 0.166833
14629.58984 0.166814
14630.83008 0.166814
14632.08008 0.166823
14633.32031 0.166832
14634.55957 0.166841
14635.79980 0.166848
14637.04004 0.166854
14638.28027 0.16686
14639.51953 0.166865
14640.75977 0.166866
14642.00000 0.166865
14643.25000 0.166863
14644.49023 0.166861
14645.73047 0.16687
14646.96973 0.166886
14648.20996 0.166902
14649.45996 0.166918
14650.70020 0.166928
14651.94043 0.166933
14653.17969 0.166939
14654.41992 0.166944
14655.66992 0.16696
14656.91016 0.166985
14658.15039 0.16701
14659.40039 0.167034
14660.63965 0.167061
14661.87988 0.16709
14663.12012 0.167119
14664.37012 0.167148
14665.61035 0.167182
14666.86035 0.167221
14668.09961 0.16726
14669.33984 0.167299
14670.58984 0.167327
14671.83008 0.167345
14673.08008 0.167362
14674.32031 0.167379
14675.55957 0.167412
14676.80957 0.167466
14678.04980 0.16752
14679.29980 0.167574
14680.54004 0.167622
14681.79004 0.167661
14683.03027 0.1677
14684.28027 0.167739
14685.51953 0.167778
14686.76953 0.167817
14688.00977 0.167855
14689.25977 0.167894
14690.50000 0.167944
14691.75000 0.168011
14693.00000 0.168078
14694.24023 0.168144
14695.49023 0.168207
14696.73047 0.168263
14697.98047 0.168319
14699.23047 0.168374
14700.46973 0.168427
14701.71973 0.168476
14702.96973 0.168524
14704.20996 0.168573
14705.45996 0.168638
14706.70996 0.168732
14707.95020 0.168825
14709.20020 0.168919
14710.45020 0.169009
14711.70020 0.169091
14712.94043 0.169173
14714.19043 0.169256
14715.44043 0.169335
14716.69043 0.169409
14717.92969 0.169484
14719.17969 0.169558
14720.42969 0.169633
14721.67969 0.16971
14722.92969 0.169787
14724.17969 0.169864
14725.41992 0.169947
14726.66992 0.170043
14727.91992 0.170138
14729.16992 0.170233
14730.41992 0.170328
14731.66992 0.170421
14732.91992 0.170514
14734.16992 0.170607
14735.41992 0.170698
14736.66992 0.170783
14737.91992 0.170869
14739.16992 0.170954
14740.41992 0.171045
14741.66992 0.171145
14742.91992 0.171245
14744.16992 0.171345
14745.41992 0.171446
14746.66992 0.171545
14747.91992 0.171646
14749.16992 0.171745
14750.41992 0.171848
14751.66992 0.171955
14752.91992 0.172063
14754.16992 0.17217
14755.41992 0.172273
14756.66992 0.172369
14757.91992 0.172464
14759.17969 0.17256
14760.42969 0.172662
14761.67969 0.172777
14762.92969 0.172892
14764.17969 0.173008
14765.42969 0.173123
14766.69043 0.173238
14767.94043 0.173354
14769.19043 0.17347
14770.44043 0.173584
14771.70020 0.173694
14772.95020 0.173805
14774.20020 0.173915
14775.45020 0.174023
14776.70996 0.174126
14777.95996 0.174229
14779.20996 0.174332
14780.46973 0.174442
14781.71973 0.174564
14782.96973 0.174686
14784.23047 0.174808
14785.48047 0.174941
14786.73047 0.175093
14787.99023 0.175245
14789.24023 0.175397
14790.50000 0.175534
14791.75000 0.175645
14793.00000 0.175757
14794.25977 0.175869
14795.50977 0.175987
14796.76953 0.176114
14798.01953 0.176241
14799.28027 0.176368
14800.53027 0.176491
14801.79004 0.176611
14803.04004 0.17673
14804.29980 0.176849
14805.54980 0.176964
14806.80957 0.177071
14808.05957 0.177179
14809.32031 0.177287
14810.58008 0.177406
14811.83008 0.177538
14813.08984 0.177671
14814.33984 0.177803
14815.59961 0.177937
14816.86035 0.178074
14818.11035 0.178212
14819.37012 0.178349
14820.62988 0.178478
14821.87988 0.178599
14823.13965 0.17872
14824.40039 0.178841
14825.65039 0.178971
14826.91016 0.179107
14828.16992 0.179244
14829.42969 0.179381
14830.67969 0.17951
14831.94043 0.179632
14833.20020 0.179754
14834.45996 0.179876
14835.70996 0.179999
14836.96973 0.180123
14838.23047 0.180248
14839.49023 0.180372
14840.75000 0.180508
14842.00977 0.180653
14843.25977 0.180798
14844.51953 0.180943
14845.78027 0.18108
14847.04004 0.181212
14848.29980 0.181344
14849.55957 0.181477
14850.82031 0.181622
14852.08008 0.181774
14853.33984 0.181926
14854.59961 0.182079
14855.86035 0.182215
14857.12012 0.182344
14858.37988 0.182473
14859.63965 0.182602
14860.90039 0.182745
14862.16016 0.182893
14863.41992 0.183041
14864.67969 0.18319
14865.94043 0.183328
14867.20020 0.183462
14868.45996 0.183597
14869.71973 0.183732
14870.98047 0.183864
14872.24023 0.183996
14873.50000 0.184128
14874.75977 0.18426
14876.01953 0.184408
14877.29004 0.18456
14878.54980 0.184712
14879.80957 0.184864
14881.07031 0.184999
14882.33008 0.18513
14883.58984 0.185262
14884.86035 0.185394
14886.12012 0.185534
14887.37988 0.185675
14888.63965 0.185816
14889.91016 0.185958
14891.16992 0.186085
14892.42969 0.186211
14893.69043 0.186337
14894.95996 0.186464
14896.21973 0.186587
14897.48047 0.18671
14898.75000 0.186832
14900.00977 0.186955
14901.26953 0.18709
14902.54004 0.187225
14903.79980 0.18736
14905.05957 0.187494
14906.33008 0.187622
14907.58984 0.187749
14908.86035 0.187877
14910.12012 0.188007
14911.38965 0.188154
14912.65039 0.188301
14913.91016 0.188448
14915.17969 0.188593
14916.44043 0.188721
14917.70996 0.18885
14918.96973 0.188978
14920.24023 0.189105
14921.50000 0.189223
14922.76953 0.189342
14924.04004 0.189461
14925.29980 0.189579
14926.57031 0.189695
14927.83008 0.18981
14929.09961 0.189926
14930.36035 0.190046
14931.62988 0.190177
14932.90039 0.190309
14934.16016 0.19044
14935.42969 0.190559
14936.70020 0.190655
14937.95996 0.19075
14939.23047 0.190846
14940.50000 0.190954
14941.75977 0.191082
14943.03027 0.19121
14944.29980 0.191338
14945.55957 0.191452
14946.83008 0.191546
14948.09961 0.191641
14949.37012 0.191736
14950.62988 0.191842
14951.90039 0.191959
14953.16992 0.192076
14954.44043 0.192193
14955.70996 0.192282
14956.96973 0.192348
14958.24023 0.192415
14959.50977 0.192481
14960.78027 0.192574
14962.04980 0.192683
14963.32031 0.192791
14964.58008 0.1929
14965.84961 0.192995
14967.12012 0.193082
14968.38965 0.19317
14969.66016 0.193257
14970.92969 0.193345
14972.20020 0.193434
14973.46973 0.193522
14974.74023 0.193611
14976.00977 0.193703
14977.28027 0.193797
14978.54980 0.19389
14979.82031 0.193983
14981.08984 0.194055
14982.36035 0.194124
14983.62988 0.194193
14984.90039 0.194263
14986.16992 0.19434
14987.44043 0.194419
14988.70996 0.194498
14989.98047 0.194576
14991.25977 0.19464
14992.53027 0.194704
14993.79980 0.194768
14995.07031 0.194832
14996.33984 0.194901
14997.61035 0.194969
14998.87988 0.195038
15000.16016 0.195104
15001.42969 0.195147
15002.70020 0.19519
15003.96973 0.195233
15005.25000 0.195276
15006.51953 0.195317
15007.79004 0.195358
15009.05957 0.195399
15010.33008 0.195444
15011.61035 0.195502
15012.87988 0.19556
15014.15039 0.195618
15015.42969 0.19567
15016.70020 0.195709
15017.96973 0.195748
15019.25000 0.195787
15020.51953 0.195819
15021.79004 0.19584
15023.07031 0.195861
15024.33984 0.195882
15025.62012 0.195903
15026.88965 0.195926
15028.16992 0.195948
15029.44043 0.195971
15030.70996 0.195996
15031.99023 0.196022
15033.25977 0.196049
15034.54004 0.196076
15035.80957 0.196101
15037.08984 0.196124
15038.36035 0.196147
15039.63965 0.19617
15040.91016 0.196191
15042.19043 0.19621
15043.45996 0.196229
15044.74023 0.196248
15046.01953 0.196255
15047.29004 0.196259
15048.57031 0.196263
15049.83984 0.196267
15051.12012 0.196276
15052.40039 0.196287
15053.66992 0.196297
15054.95020 0.196307
15056.23047 0.196317
15057.50000 0.196326
15058.78027 0.196335
15060.05957 0.196343
15061.33008 0.19634
15062.61035 0.196336
15063.88965 0.196333
15065.16992 0.19633
15066.44043 0.196337
15067.71973 0.196344
15069.00000 0.19635
15070.28027 0.196353
15071.54980 0.196341
15072.83008 0.196329
15074.11035 0.196316
15075.38965 0.196303
15076.66992 0.196285
15077.94043 0.196267
15079.21973 0.19625
15080.50000 0.196239
15081.78027 0.196238
15083.05957 0.196238
15084.33984 0.196237
15085.62012 0.19624
15086.90039 0.196246
15088.17969 0.196252
15089.45996 0.196259
15090.74023 0.196236
15092.00977 0.196193
15093.29004 0.19615
15094.57031 0.196107
15095.84961 0.196072
15097.12988 0.196041
15098.41992 0.196011
15099.70020 0.19598
15100.98047 0.195961
15102.25977 0.195945
15103.54004 0.19593
15104.82031 0.195914
15106.09961 0.195896
15107.37988 0.195878
15108.66016 0.19586
15109.94043 0.195842
15111.21973 0.195815
15112.50000 0.195789
15113.79004 0.195762
15115.07031 0.195735
15116.34961 0.195705
15117.62988 0.195675
15118.91016 0.195644
15120.19043 0.195612
15121.48047 0.195564
15122.75977 0.195517
15124.04004 0.195469
15125.32031 0.195426
15126.61035 0.195394
15127.88965 0.195362
15129.16992 0.19533
15130.45996 0.1953
15131.74023 0.195271
15133.01953 0.195243
15134.29980 0.195214
15135.58984 0.195173
15136.87012 0.195116
15138.15039 0.19506
15139.44043 0.195003
15140.71973 0.194959
15142.00977 0.194925
15143.29004 0.194891
15144.57031 0.194857
15145.86035 0.194813
15147.13965 0.194765
15148.42969 0.194717
15149.70996 0.194668
15151.00000 0.19462
15152.28027 0.194573
15153.57031 0.194525
15154.84961 0.194477
15156.13965 0.19442
15157.41992 0.194363
15158.70996 0.194305
15159.99023 0.194247
15161.28027 0.194218
15162.55957 0.19419
15163.84961 0.194161
15165.12988 0.194127
15166.41992 0.194042
15167.70996 0.193958
15168.99023 0.193873
15170.28027 0.193798
15171.57031 0.193757
15172.84961 0.193716
15174.13965 0.193674
15175.42969 0.193628
15176.70996 0.193573
15178.00000 0.193518
15179.29004 0.193463
15180.57031 0.193411
15181.86035 0.193363
15183.15039 0.193315
15184.44043 0.193266
15185.71973 0.193206
15187.00977 0.193135
15188.29980 0.193064
15189.58984 0.192994
15190.87012 0.192929
15192.16016 0.192868
15193.45020 0.192806
15194.74023 0.192744
15196.03027 0.192677
15197.32031 0.192608
15198.61035 0.192539
15199.88965 0.19247
15201.17969 0.192412
15202.46973 0.192354
15203.75977 0.192296
15205.04980 0.192239
15206.33984 0.192197
15207.62988 0.192155
15208.91992 0.192112
15210.20996 0.19207
15211.50000 0.192028
15212.79004 0.191985
15214.08008 0.191943
15215.37012 0.191895
15216.66016 0.191833
15217.95020 0.19177
15219.24023 0.191708
15220.53027 0.191647
15221.82031 0.191586
15223.11035 0.191525
15224.40039 0.191465
15225.69043 0.191413
15226.98047 0.191368
15228.28027 0.191323
15229.57031 0.191277
15230.86035 0.191212
15232.15039 0.191136
15233.44043 0.191059
15234.73047 0.190983
15236.03027 0.190939
15237.32031 0.190903
15238.61035 0.190867
15239.90039 0.190831
15241.19043 0.190801
15242.49023 0.190772
15243.78027 0.190742
15245.07031 0.19071
15246.36035 0.190649
15247.66016 0.190587
15248.95020 0.190525
15250.24023 0.190465
15251.54004 0.190415
15252.83008 0.190366
15254.12012 0.190316
15255.41992 0.190268
15256.70996 0.190225
15258.00000 0.190183
15259.29980 0.19014
15260.58984 0.190089
15261.88965 0.190029
15263.17969 0.189968
15264.46973 0.189908
15265.76953 0.18987
15267.05957 0.189848
15268.36035 0.189825
15269.65039 0.189802
15270.95020 0.18977
15272.24023 0.189734
15273.54004 0.189698
15274.83008 0.189663
15276.12988 0.189616
15277.41992 0.189569
15278.71973 0.189522
15280.00977 0.189474
15281.30957 0.189439
15282.61035 0.189403
15283.90039 0.189368
15285.20020 0.189332
15286.49023 0.189298
15287.79004 0.189263
15289.08984 0.189228
15290.37988 0.189194
15291.67969 0.189164
15292.98047 0.189133
15294.26953 0.189103
15295.57031 0.189067
15296.87012 0.189026
15298.16016 0.188984
15299.45996 0.188943
15300.75977 0.188911
15302.05957 0.188885
15303.34961 0.188859
15304.65039 0.188834
15305.95020 0.188792
15307.25000 0.188743
15308.54004 0.188694
15309.83984 0.188645
15311.13965 0.188606
15312.44043 0.188568
15313.74023 0.18853
15315.04004 0.188492
15316.33008 0.188458
15317.62988 0.188423
15318.92969 0.188388
15320.23047 0.188353
15321.53027 0.188312
15322.83008 0.188273
15324.12988 0.188232
15325.42969 0.188193
15326.73047 0.188155
15328.03027 0.188117
15329.33008 0.188079
15330.62988 0.188045
15331.92969 0.188014
15333.23047 0.187983
15334.53027 0.187952
15335.83008 0.187923
15337.12988 0.187895
15338.42969 0.187867
15339.73047 0.187839
15341.03027 0.187811
15342.33008 0.187783
15343.62988 0.187755
15344.92969 0.187727
15346.24023 0.1877
15347.54004 0.187673
15348.83984 0.187647
15350.13965 0.187619
15351.44043 0.187585
15352.74023 0.187552
15354.04004 0.187518
15355.34961 0.187486
15356.65039 0.187459
15357.95020 0.187431
15359.25000 0.187404
15360.55957 0.187382
15361.86035 0.187366
15363.16016 0.187351
15364.45996 0.187335
15365.76953 0.187314
15367.07031 0.187288
15368.37012 0.187262
15369.67969 0.187237
15370.98047 0.187209
15372.28027 0.187181
15373.58984 0.187153
15374.88965 0.187125
15376.19043 0.187116
15377.50000 0.187109
15378.79980 0.187101
15380.11035 0.187092
15381.41016 0.187069
15382.70996 0.187045
15384.01953 0.187022
15385.32031 0.187002
15386.62988 0.186995
15387.92969 0.186988
15389.24023 0.186981
15390.54004 0.186972
15391.84961 0.186963
15393.15039 0.186953
15394.45996 0.186943
15395.75977 0.186923
15397.07031 0.186895
15398.37012 0.186867
15399.67969 0.186839
15400.99023 0.18685
15402.29004 0.186874
15403.59961 0.186897
15404.90039 0.186921
15406.20996 0.186932
15407.51953 0.186942
15408.82031 0.186952
15410.12988 0.186962
15411.44043 0.186976
15412.74023 0.18699
15414.04980 0.187003
15415.36035 0.187018
15416.66016 0.187034
15417.96973 0.18705
15419.28027 0.187066
15420.58984 0.187086
15421.88965 0.18711
15423.20020 0.187133
15424.50977 0.187157
15425.82031 0.187173
15427.12988 0.187183
15428.42969 0.187194
15429.74023 0.187204
15431.04980 0.187227
15432.36035 0.187252
15433.66992 0.187278
15434.98047 0.187303
15436.29004 0.187331
15437.58984 0.187359
15438.90039 0.187387
15440.20996 0.187416
15441.51953 0.187452
15442.83008 0.187488
15444.13965 0.187524
15445.45020 0.187553
15446.75977 0.187569
15448.07031 0.187584
15449.37988 0.1876
15450.69043 0.187627
15452.00000 0.187665
15453.30957 0.187703
15454.62012 0.187741
15455.92969 0.187777
15457.24023 0.187813
15458.54980 0.187849
15459.86035 0.187885
15461.16992 0.187929
15462.49023 0.187973
15463.79980 0.188019
15465.11035 0.188064
15466.41992 0.188111
15467.73047 0.188158
15469.04004 0.188205
15470.34961 0.188244
15471.66992 0.188262
15472.98047 0.18828
15474.29004 0.188298
15475.59961 0.188332
15476.91992 0.188384
15478.23047 0.188435
15479.54004 0.188487
15480.84961 0.188528
15482.16992 0.188564
15483.48047 0.188599
15484.79004 0.188635
15486.09961 0.188668
15487.41992 0.188702
15488.73047 0.188736
15490.04004 0.18877
15491.36035 0.188814
15492.66992 0.188858
15493.98047 0.188902
15495.29980 0.188946
15496.61035 0.188992
15497.92969 0.189037
15499.24023 0.189082
15500.54980 0.189123
15501.87012 0.189157
15503.17969 0.189192
15504.50000 0.189226
15505.80957 0.189252
15507.12988 0.189272
15508.44043 0.189292
15509.75977 0.189313
15511.07031 0.189357
15512.38965 0.189406
15513.70020 0.189455
15515.01953 0.189504
15516.33008 0.189515
15517.65039 0.189527
15518.96973 0.189538
15520.28027 0.189556
15521.59961 0.189596
15522.91992 0.189635
15524.23047 0.189675
15525.54980 0.189709
15526.86035 0.189737
15528.17969 0.189764
15529.50000 0.189792
15530.80957 0.189825
15532.12988 0.189863
15533.45020 0.189902
15534.76953 0.18994
15536.08008 0.189976
15537.40039 0.190011
15538.71973 0.190047
15540.04004 0.190082
15541.34961 0.190101
15542.66992 0.190121
15543.99023 0.19014
15545.30957 0.190162
15546.62988 0.19019
15547.94043 0.190219
15549.25977 0.190247
15550.58008 0.190282
15551.90039 0.190324
15553.21973 0.190366
15554.54004 0.190408
15555.86035 0.190445
15557.17969 0.19048
15558.50000 0.190515
15559.80957 0.19055
15561.12988 0.190566
15562.45020 0.190579
15563.76953 0.190592
15565.08984 0.190607
15566.41016 0.190638
15567.73047 0.19067
15569.04980 0.190702
15570.37012 0.19074
15571.69043 0.190794
15573.00977 0.190847
15574.33008 0.190901
15575.65039 0.19093
15576.98047 0.190933
15578.29980 0.190937
15579.62012 0.19094
15580.94043 0.190968
15582.25977 0.191005
15583.58008 0.191043
15584.90039 0.191081
15586.21973 0.19113
15587.54980 0.191179
15588.87012 0.191229
15590.19043 0.191274
15591.50977 0.191286
15592.83008 0.191299
15594.16016 0.191312
15595.48047 0.191332
15596.79980 0.191365
15598.12012 0.191398
15599.45020 0.191431
15600.76953 0.19147
15602.08984 0.191514
15603.41016 0.191558
15604.74023 0.191603
15606.05957 0.191647
15607.37988 0.191693
15608.70996 0.191738
15610.03027 0.191783
15611.34961 0.191817
15612.67969 0.191851
15614.00000 0.191885
15615.33008 0.191923
15616.65039 0.191977
15617.96973 0.192031
15619.29980 0.192085
15620.62012 0.192136
15621.95020 0.192182
15623.26953 0.192228
15624.59961 0.192275
15625.91992 0.192308
15627.25000 0.192336
15628.57031 0.192363
15629.90039 0.192391
15631.21973 0.192435
15632.54980 0.192481
15633.87012 0.192527
15635.20020 0.192573
15636.53027 0.192618
15637.84961 0.192662
15639.17969 0.192707
15640.50000 0.192748
15641.83008 0.192783
15643.16016 0.192819
15644.48047 0.192854
15645.80957 0.192897
15647.13965 0.192944
15648.45996 0.192991
15649.79004 0.193039
15651.12012 0.193083
15652.45020 0.193127
15653.76953 0.193171
15655.09961 0.193214
15656.42969 0.193244
15657.75000 0.193273
15659.08008 0.193302
15660.41016 0.193337
15661.74023 0.193384
15663.07031 0.193432
15664.38965 0.193479
15665.71973 0.193529
15667.04980 0.193583
15668.37988 0.193636
15669.70996 0.193689
15671.04004 0.193731
15672.37012 0.193769
15673.70020 0.193808
15675.01953 0.193847
15676.34961 0.193894
15677.67969 0.193941
15679.00977 0.193988
15680.33984 0.194033
15681.66992 0.194071
15683.00000 0.194109
15684.33008 0.194147
15685.66016 0.194192
15686.99023 0.194243
15688.32031 0.194294
15689.65039 0.194345
15690.98047 0.194381
15692.30957 0.194411
15693.63965 0.194441
15694.96973 0.194471
15696.29980 0.19451
15697.63965 0.19455
15698.96973 0.19459
15700.29980 0.194626
15701.62988 0.194652
15702.95996 0.194677
15704.29004 0.194703
15705.62012 0.194739
15706.95996 0.194786
15708.29004 0.194833
15709.62012 0.19488
15710.95020 0.194923
15712.28027 0.194965
15713.62012 0.195006
15714.95020 0.195048
15716.28027 0.195069
15717.61035 0.195089
15718.95020 0.19511
15720.28027 0.195132
15721.61035 0.195162
15722.95020 0.195193
15724.28027 0.195224
15725.61035 0.195255
15726.95020 0.195289
15728.28027 0.195322
15729.61035 0.195355
15730.95020 0.195401
15732.28027 0.195453
15733.62012 0.195504
15734.95020 0.195555
15736.28027 0.195575
15737.62012 0.195594
15738.95020 0.195612
15740.29004 0.195632
15741.62012 0.195659
15742.95996 0.195686
15744.29004 0.195713
15745.62988 0.195745
15746.95996 0.195783
15748.29980 0.195821
15749.62988 0.195858
15750.96973 0.195889
15752.29980 0.195917
15753.63965 0.195945
15754.98047 0.195973
15756.30957 0.196019
15757.65039 0.196066
15758.98047 0.196112
15760.32031 0.196154
15761.66016 0.19618
15762.99023 0.196207
15764.33008 0.196233
15765.66992 0.196263
15767.00000 0.196296
15768.33984 0.196329
15769.67969 0.196362
15771.01953 0.196396
15772.34961 0.19643
15773.69043 0.196463
15775.03027 0.196497
15776.37012 0.196524
15777.70020 0.19655
15779.04004 0.196577
15780.37988 0.196603
15781.71973 0.196625
15783.05957 0.196647
15784.38965 0.196669
15785.73047 0.196689
15787.07031 0.196709
15788.41016 0.196728
15789.75000 0.196747
15791.08984 0.196777
15792.42969 0.196809
15793.76953 0.196841
15795.09961 0.196873
15796.44043 0.196896
15797.78027 0.196918
15799.12012 0.196941
15800.45996 0.196961
15801.79980 0.196979
15803.13965 0.196996
15804.48047 0.197013
15805.82031 0.197027
15807.16016 0.197039
15808.50000 0.197051
15809.83984 0.197063
15811.17969 0.19708
15812.53027 0.197097
15813.87012 0.197114
15815.20996 0.197133
15816.54980 0.197162
15817.88965 0.19719
15819.23047 0.197219
15820.57031 0.197242
15821.91016 0.197257
15823.25977 0.197272
15824.59961 0.197287
15825.94043 0.197305
15827.28027 0.197323
15828.62012 0.197341
15829.96973 0.197359
15831.30957 0.197379
15832.65039 0.197398
15833.99023 0.197418
15835.33984 0.197438
15836.67969 0.197459
15838.01953 0.197479
15839.36035 0.1975
15840.70996 0.197517
15842.04980 0.197531
15843.38965 0.197544
15844.74023 0.197558
15846.08008 0.197585
15847.41992 0.197614
15848.76953 0.197644
15850.11035 0.197672
15851.45996 0.197683
15852.79980 0.197693
15854.15039 0.197704
15855.49023 0.197718
15856.83008 0.197739
15858.17969 0.19776
15859.51953 0.197781
15860.87012 0.197798
15862.20996 0.197812
15863.55957 0.197826
15864.90039 0.19784
15866.25000 0.197871
15867.58984 0.197903
15868.94043 0.197936
15870.29004 0.197962
15871.62988 0.197966
15872.98047 0.197969
15874.32031 0.197973
15875.66992 0.197993
15877.01953 0.198029
15878.36035 0.198065
15879.70996 0.198102
15881.04980 0.19814
15882.40039 0.198179
15883.75000 0.198219
15885.09961 0.198257
15886.44043 0.198286
15887.79004 0.198315
15889.13965 0.198343
15890.48047 0.198371
15891.83008 0.198396
15893.17969 0.198422
15894.53027 0.198448
15895.87012 0.198473
15897.21973 0.198497
15898.57031 0.198522
15899.91992 0.198547
15901.26953 0.198588
15902.62012 0.19863
15903.95996 0.198673
15905.30957 0.198716
15906.66016 0.198765
15908.00977 0.198813
15909.36035 0.198861
15910.70996 0.198911
15912.05957 0.198964
15913.41016 0.199017
15914.75977 0.19907
15916.11035 0.199103
15917.45996 0.199133
15918.79980 0.199162
15920.15039 0.199194
15921.50000 0.199247
15922.84961 0.199299
15924.20996 0.199352
15925.55957 0.199398
15926.91016 0.199433
15928.25977 0.199468
15929.61035 0.199503
15930.95996 0.199547
15932.30957 0.199595
15933.66016 0.199643
15935.00977 0.199691
15936.36035 0.199737
15937.70996 0.199784
15939.07031 0.199831
15940.41992 0.199881
15941.76953 0.199939
15943.12012 0.199997
15944.46973 0.200056
15945.82031 0.200101
15947.17969 0.200137
15948.53027 0.200174
15949.87988 0.200211
15951.23047 0.200262
15952.58984 0.200314
15953.94043 0.200367
15955.29004 0.200417
15956.63965 0.20046
15958.00000 0.200503
15959.34961 0.200546
15960.70020 0.200594
15962.05957 0.200649
15963.41016 0.200703
15964.75977 0.200757
15966.12012 0.200809
15967.46973 0.20086
15968.83008 0.200911
15970.17969 0.200963
15971.54004 0.201016
15972.88965 0.201069
15974.24023 0.201123
15975.59961 0.201171
15976.95020 0.201214
15978.30957 0.201258
15979.66016 0.201301
15981.01953 0.201351
15982.37012 0.201404
15983.73047 0.201457
15985.08008 0.20151
15986.44043 0.20157
15987.79004 0.201631
15989.15039 0.201692
15990.50977 0.20175
15991.86035 0.201804
15993.21973 0.201857
15994.57031 0.201911
15995.92969 0.201964
15997.29004 0.202016
15998.63965 0.202069
16000.00000 0.202121
16001.36035 0.202198
16002.70996 0.202275
16004.07031 0.202352
16005.42969 0.202429
16006.79004 0.202506
16008.13965 0.202582
16009.50000 0.202659
16010.86035 0.202735
16012.20996 0.202811
16013.57031 0.202887
16014.92969 0.202963
16016.29004 0.203053
16017.65039 0.203144
16019.00977 0.203235
16020.36035 0.203325
16021.71973 0.203414
16023.08008 0.203504
16024.44043 0.203593
16025.79980 0.203678
16027.16016 0.203759
16028.51953 0.20384
16029.87988 0.203922
16031.24023 0.204003
16032.58984 0.204083
16033.95020 0.204164
16035.30957 0.204242
16036.66992 0.204308
16038.03027 0.204374
16039.38965 0.204441
16040.75000 0.204534
16042.11035 0.204648
16043.46973 0.204762
16044.83008 0.204877
16046.19043 0.204955
16047.55957 0.205028
16048.91992 0.205101
16050.28027 0.205182
16051.63965 0.205288
16053.00000 0.205395
16054.36035 0.205502
16055.71973 0.205595
16057.08008 0.205675
16058.45020 0.205756
16059.80957 0.205837
16061.16992 0.20592
16062.53027 0.206002
16063.88965 0.206085
16065.25000 0.206169
16066.62012 0.206258
16067.98047 0.206348
16069.33984 0.206437
16070.70020 0.206528
16072.07031 0.206621
16073.42969 0.206714
16074.79004 0.206808
16076.16016 0.206895
16077.51953 0.206982
16078.87988 0.207068
16080.25000 0.207157
16081.61035 0.20726
16082.96973 0.207362
16084.33984 0.207464
16085.70020 0.207559
16087.07031 0.207646
16088.42969 0.207733
16089.79004 0.20782
16091.16016 0.207921
16092.51953 0.208025
16093.88965 0.208128
16095.25000 0.208228
16096.62012 0.208307
16097.98047 0.208386
16099.34961 0.208465
16100.70996 0.208558
16102.08008 0.208664
16103.44043 0.208769
16104.80957 0.208874
16106.16992 0.208984
16107.54004 0.209095
16108.91016 0.209206
16110.26953 0.209314
16111.63965 0.209404
16113.00000 0.209495
16114.37012 0.209586
16115.74023 0.209688
16117.09961 0.2098
16118.46973 0.209912
16119.83984 0.210024
16121.20020 0.210148
16122.57031 0.210274
16123.94043 0.210399
16125.29980 0.210515
16126.66992 0.210598
16128.04004 0.21068
16129.41016 0.210762
16130.78027 0.210851
16132.13965 0.210944
16133.50977 0.211037
16134.87988 0.21113
16136.25000 0.211221
16137.62012 0.211312
16138.98047 0.211403
16140.34961 0.211499
16141.71973 0.211608
16143.08984 0.211717
16144.45996 0.211825
16145.83008 0.211924
16147.20020 0.212016
16148.57031 0.212108
16149.94043 0.2122
16151.29980 0.212306
16152.66992 0.212413
16154.04004 0.21252
16155.41016 0.212624
16156.78027 0.212722
16158.15039 0.21282
16159.51953 0.212919
16160.88965 0.213027
16162.25977 0.213142
16163.63965 0.213256
16165.00977 0.21337
16166.37988 0.213451
16167.75000 0.213533
16169.12012 0.213614
16170.49023 0.213702
16171.86035 0.213803
16173.23047 0.213904
16174.59961 0.214005
16175.98047 0.214099
16177.34961 0.21419
16178.71973 0.21428
16180.08984 0.214372
16181.45996 0.214483
16182.83008 0.214594
16184.20996 0.214705
16185.58008 0.214812
16186.95020 0.214914
16188.33008 0.215015
16189.70020 0.215117
16191.07031 0.215218
16192.44043 0.215317
16193.82031 0.215418
16195.19043 0.215515
16196.55957 0.2156
16197.94043 0.215685
16199.30957 0.215769
16200.67969 0.215852
16202.05957 0.215933
16203.42969 0.216013
16204.80957 0.216094
16206.17969 0.216208
16207.54980 0.216326
16208.92969 0.216445
16210.29980 0.216551
16211.67969 0.216614
16213.04980 0.216677
16214.42969 0.21674
16215.79980 0.216823
16217.17969 0.21692
16218.54980 0.217018
16219.92969 0.217116
16221.29980 0.217189
16222.67969 0.217261
16224.04980 0.217333
16225.42969 0.217403
16226.80957 0.217469
16228.17969 0.217534
16229.55957 0.217599
16230.92969 0.217686
16232.30957 0.217783
16233.69043 0.217881
16235.05957 0.217977
16236.44043 0.218054
16237.82031 0.218132
16239.19043 0.218209
16240.57031 0.218288
16241.95020 0.21837
16243.33008 0.218452
16244.70020 0.218534
16246.08008 0.218627
16247.45996 0.218722
16248.83008 0.218818
16250.20996 0.218908
16251.58984 0.218968
16252.96973 0.219028
16254.34961 0.219087
16255.73047 0.219156
16257.09961 0.219233
16258.48047 0.21931
16259.86035 0.219388
16261.24023 0.219437
16262.62012 0.219484
16264.00000 0.219531
16265.37988 0.21959
16266.75977 0.219681
16268.13965 0.219772
16269.51953 0.219863
16270.88965 0.219947
16272.26953 0.220027
16273.65039 0.220107
16275.03027 0.220186
16276.41016 0.220259
16277.79004 0.220332
16279.16992 0.220405
16280.55957 0.220473
16281.94043 0.220536
16283.32031 0.220599
16284.70020 0.220661
16286.08008 0.220741
16287.45996 0.220825
16288.83984 0.220909
16290.21973 0.220991
16291.59961 0.221058
16292.98047 0.221126
16294.37012 0.221193
16295.75000 0.221259
16297.12988 0.221323
16298.50977 0.221387
16299.88965 0.221452
16301.28027 0.221509
16302.66016 0.221566
16304.04004 0.221623
16305.41992 0.221684
16306.80957 0.221757
16308.19043 0.22183
16309.57031 0.221902
16310.95996 0.221971
16312.33984 0.222037
16313.71973 0.222103
16315.09961 0.222169
16316.49023 0.222236
16317.87012 0.222302
16319.25000 0.222368
16320.63965 0.222436
16322.01953 0.222503
16323.41016 0.222571
16324.79004 0.222639
16326.17969 0.222689
16327.55957 0.222735
16328.94043 0.222781
16330.33008 0.222829
16331.70996 0.222882
16333.09961 0.222936
16334.48047 0.22299
16335.87012 0.223055
16337.25000 0.223126
16338.63965 0.223198
16340.03027 0.223269
16341.41016 0.223321
16342.79980 0.223373
16344.17969 0.223425
16345.57031 0.223479
16346.95020 0.223534
16348.33984 0.223589
16349.73047 0.223645
16351.11035 0.223702
16352.50000 0.22376
16353.88965 0.223817
16355.26953 0.223869
16356.66016 0.223899
16358.04980 0.223929
16359.42969 0.223959
16360.82031 0.223993
16362.20996 0.22403
16363.59961 0.224067
16364.98047 0.224104
16366.37012 0.224187
16367.75977 0.22427
16369.15039 0.224353
16370.54004 0.224416
16371.91992 0.224448
16373.30957 0.224479
16374.70020 0.22451
16376.08984 0.224553
16377.48047 0.2246
16378.87012 0.224646
16380.25000 0.224693
16381.63965 0.224739
16383.03027 0.224786
16384.41992 0.224832
16385.81055 0.224877
16387.19922 0.22492
16388.58984 0.224963
16389.98047 0.225007
16391.36914 0.225053
16392.75977 0.225099
16394.15039 0.225145
16395.53906 0.225181
16396.92969 0.225202
16398.32031 0.225222
16399.71094 0.225243
16401.09961 0.225283
16402.49023 0.225328
16403.88086 0.225373
16405.27930 0.225417
16406.66992 0.225458
16408.06055 0.225499
16409.44922 0.22554
16410.83984 0.225595
16412.23047 0.225659
16413.61914 0.225723
16415.01953 0.225786
16416.41016 0.225779
16417.80078 0.225772
16419.18945 0.225765
16420.58008 0.225791
16421.98047 0.225861
16423.36914 0.225932
16424.75977 0.226002
16426.15039 0.226037
16427.55078 0.226065
16428.93945 0.226093
16430.33008 0.226122
16431.73047 0.226154
16433.11914 0.226186
16434.50977 0.226218
16435.91016 0.226256
16437.30078 0.226297
16438.69922 0.226338
16440.08984 0.226378
16441.48047 0.226417
16442.88086 0.226456
16444.26953 0.226494
16445.66992 0.226531
16447.06055 0.226566
16448.46094 0.2266
16449.84961 0.226635
16451.24023 0.22666
16452.64062 0.226685
16454.03906 0.226709
16455.42969 0.226741
16456.83008 0.226791
16458.22070 0.226842
16459.61914 0.226892
16461.00977 0.226922
16462.41016 0.226944
16463.80078 0.226967
16465.19922 0.226993
16466.59961 0.22704
16467.99023 0.227086
16469.39062 0.227133
16470.78906 0.227161
16472.17969 0.227174
16473.58008 0.227188
16474.98047 0.227201
16476.36914 0.227239
16477.76953 0.227278
16479.16992 0.227317
16480.56055 0.227352
16481.96094 0.227381
16483.35938 0.22741
16484.75977 0.227439
16486.16016 0.227462
16487.55078 0.227485
16488.94922 0.227507
16490.34961 0.227535
16491.75000 0.227579
16493.15039 0.227623
16494.53906 0.227666
16495.93945 0.22769
16497.33984 0.227704
16498.74023 0.227718
16500.14062 0.227734
16501.53906 0.22777
16502.93945 0.227806
16504.33984 0.227842
16505.74023 0.227863
16507.14062 0.227872
16508.53906 0.227881
16509.93945 0.22789
16511.33984 0.227927
16512.74023 0.227965
16514.14062 0.228003
16515.53906 0.22804
16516.93945 0.228076
16518.33984 0.228111
16519.74023 0.228147
16521.14062 0.228148
16522.53906 0.228142
16523.93945 0.228135
16525.33984 0.228141
16526.75000 0.228182
16528.15039 0.228223
16529.55078 0.228264
16530.94922 0.228294
16532.34961 0.22832
16533.75000 0.228346
16535.16016 0.228373
16536.56055 0.228415
16537.96094 0.228457
16539.35938 0.228499
16540.76953 0.22852
16542.16992 0.228522
16543.57031 0.228525
16544.97070 0.228528
16546.38086 0.228535
16547.77930 0.228542
16549.17969 0.228549
16550.58984 0.228564
16551.99023 0.228592
16553.39062 0.228619
16554.80078 0.228646
16556.19922 0.228672
16557.59961 0.228698
16559.00977 0.228724
16560.41016 0.228744
16561.82031 0.228747
16563.22070 0.228751
16564.61914 0.228754
16566.02930 0.228793
16567.43945 0.228845
16568.83984 0.228897
16570.24023 0.228941
16571.65039 0.228952
16573.05078 0.228962
16574.46094 0.228972
16575.86914 0.228986
16577.26953 0.229001
16578.67969 0.229016
16580.08008 0.229032
16581.49023 0.229056
16582.89062 0.22908
16584.30078 0.229104
16585.71094 0.229124
16587.10938 0.229139
16588.51953 0.229155
16589.92969 0.22917
16591.33008 0.229194
16592.74023 0.229219
16594.15039 0.229243
16595.55078 0.229261
16596.96094 0.229268
16598.36914 0.229275
16599.77930 0.229283
16601.18945 0.229327
16602.58984 0.229378
16604.00000 0.22943
16605.41016 0.229468
16606.82031 0.229475
16608.22070 0.229483
16609.63086 0.22949
16611.03906 0.229538
16612.44922 0.229601
16613.85938 0.229664
16615.26953 0.229721
16616.67969 0.229749
16618.08984 0.229777
16619.49023 0.229805
16620.90039 0.229835
16622.31055 0.229868
16623.72070 0.2299
16625.13086 0.229932
16626.53906 0.229962
16627.94922 0.229993
16629.35938 0.230023
16630.76953 0.23006
16632.17969 0.230102
16633.58984 0.230145
16635.00000 0.230187
16636.41016 0.23023
16637.82031 0.230273
16639.24023 0.230316
16640.65039 0.230349
16642.06055 0.23037
16643.47070 0.23039
16644.88086 0.230411
16646.28906 0.230455
16647.69922 0.230502
16649.11914 0.230548
16650.52930 0.230597
16651.93945 0.230649
16653.34961 0.230701
16654.75977 0.230753
16656.17969 0.230795
16657.58984 0.230835
16659.00000 0.230876
16660.41016 0.230914
16661.83008 0.230947
16663.24023 0.23098
16664.65039 0.231013
16666.06055 0.231043
16667.48047 0.231071
16668.89062 0.2311
16670.30078 0.231131
16671.72070 0.231173
16673.13086 0.231215
16674.53906 0.231257
16675.96094 0.231316
16677.36914 0.231384
16678.78906 0.231451
16680.19922 0.231511
16681.61914 0.23152
16683.02930 0.231529
16684.44922 0.231538
16685.85938 0.231572
16687.27930 0.231622
16688.68945 0.231673
16690.10938 0.231723
16691.51953 0.231769
16692.93945 0.231816
16694.34961 0.231863
16695.76953 0.231901
16697.17969 0.231932
16698.59961 0.231963
16700.01953 0.231993
16701.42969 0.232038
16702.84961 0.232083
16704.25977 0.232127
16705.67969 0.232171
16707.09961 0.232212
16708.50977 0.232254
16709.92969 0.232296
16711.34961 0.23232
16712.76953 0.232343
16714.17969 0.232366
16715.59961 0.232408
16717.01953 0.232477
16718.42969 0.232545
16719.84961 0.232614
16721.26953 0.232648
16722.68945 0.232678
16724.10938 0.232707
16725.51953 0.232745
16726.93945 0.232798
16728.35938 0.23285
16729.77930 0.232903
16731.19922 0.232947
16732.61914 0.232989
16734.03906 0.233031
16735.46094 0.233074
16736.86914 0.233118
16738.28906 0.233162
16739.71094 0.233206
16741.13086 0.23324
16742.55078 0.233273
16743.97070 0.233305
16745.39062 0.233337
16746.81055 0.233367
16748.23047 0.233397
16749.65039 0.233427
16751.07031 0.233468
16752.49023 0.233513
16753.91016 0.233558
16755.33008 0.233605
16756.75000 0.23366
16758.16992 0.233714
16759.59961 0.233769
16761.01953 0.233813
16762.43945 0.233854
16763.85938 0.233895
16765.27930 0.233942
16766.69922 0.234014
16768.13086 0.234086
16769.55078 0.234158
16770.97070 0.234187
16772.39062 0.234196
16773.81055 0.234205
16775.23047 0.234224
16776.66016 0.234291
16778.08008 0.234358
16779.50000 0.234426
16780.92969 0.234487
16782.34961 0.234545
16783.76953 0.234603
16785.19922 0.23466
16786.61914 0.234707
16788.03906 0.234753
16789.46094 0.234799
16790.89062 0.234834
16792.31055 0.234862
16793.74023 0.234891
16795.16016 0.234924
16796.58984 0.234988
16798.00977 0.235052
16799.42969 0.235117
16800.85938 0.235187
16802.27930 0.235262
16803.71094 0.235337
16805.13086 0.23541
16806.56055 0.235465
16807.98047 0.235519
16809.41016 0.235574
16810.83008 0.235624
16812.25977 0.235671
16813.68945 0.235718
16815.10938 0.235765
16816.53906 0.235822
16817.96094 0.23588
16819.39062 0.235937
16820.81055 0.236003
16822.24023 0.236074
16823.66992 0.236146
16825.08984 0.236216
16826.51953 0.236261
16827.94922 0.236306
16829.36914 0.236351
16830.80078 0.236404
16832.23047 0.236463
16833.66016 0.236522
16835.08008 0.236582
16836.50977 0.236651
16837.93945 0.236719
16839.36914 0.236788
16840.78906 0.236847
16842.22070 0.236898
16843.65039 0.236949
16845.08008 0.237001
16846.50977 0.23707
16847.93945 0.237139
16849.36914 0.237208
16850.78906 0.237291
16852.22070 0.237384
16853.65039 0.237478
16855.08008 0.237567
16856.50977 0.237586
16857.93945 0.237604
16859.36914 0.237623
16860.80078 0.237661
16862.23047 0.237713
16863.66016 0.237766
16865.08984 0.237822
16866.51953 0.237918
16867.94922 0.238013
16869.38086 0.238109
16870.81055 0.238179
16872.24023 0.238229
16873.66992 0.238279
16875.09961 0.238331
16876.52930 0.238416
16877.96094 0.2385
16879.39062 0.238584
16880.83008 0.238644
16882.25977 0.238686
16883.68945 0.238728
16885.11914 0.23877
16886.55078 0.238815
16887.98047 0.238859
16889.41992 0.238904
16890.84961 0.238967
16892.27930 0.239043
16893.71094 0.239119
16895.15039 0.239191
16896.58008 0.239226
16898.00977 0.239262
16899.44922 0.239298
16900.88086 0.239343
16902.31055 0.239393
16903.74023 0.239444
16905.17969 0.239496
16906.60938 0.239551
16908.03906 0.239607
16909.48047 0.239663
16910.91016 0.239711
16912.34961 0.239755
16913.77930 0.239799
16915.21094 0.239846
16916.65039 0.239902
16918.08008 0.239959
16919.51953 0.240016
16920.94922 0.240063
16922.39062 0.240104
16923.82031 0.240145
16925.25977 0.240191
16926.68945 0.240257
16928.13086 0.240323
16929.56055 0.240389
16931.00000 0.240447
16932.43945 0.240502
16933.86914 0.240556
16935.31055 0.240608
16936.74023 0.240653
16938.17969 0.240697
16939.61914 0.240742
16941.05078 0.240791
16942.49023 0.240843
16943.92969 0.240895
16945.35938 0.240945
16946.80078 0.240992
16948.24023 0.241039
16949.66992 0.241086
16951.10938 0.241136
16952.55078 0.241187
16953.99023 0.241237
16955.41992 0.241291
16956.85938 0.241353
16958.30078 0.241415
16959.74023 0.241476
16961.17969 0.241519
16962.60938 0.241557
16964.05078 0.241595
16965.49023 0.241643
16966.92969 0.241711
16968.36914 0.241779
16969.81055 0.241847
16971.25000 0.241907
16972.67969 0.241964
16974.11914 0.242022
16975.56055 0.242061
16977.00000 0.242072
16978.43945 0.242083
16979.88086 0.242094
16981.32031 0.242163
16982.75977 0.242236
16984.19922 0.24231
16985.64062 0.242373
16987.08008 0.242422
16988.51953 0.24247
16989.96094 0.242519
16991.40039 0.242575
16992.84961 0.242631
16994.28906 0.242687
16995.73047 0.242743
16997.16992 0.242799
16998.60938 0.242855
17000.05078 0.242909
17001.49023 0.242933
17002.92969 0.242956
17004.38086 0.24298
17005.82031 0.242971
17007.25977 0.242937
17008.69922 0.242903
17010.14062 0.242874
17011.58984 0.242898
17013.02930 0.242921
17014.47070 0.242945
17015.91016 0.242957
17017.35938 0.242963
17018.80078 0.24297
17020.24023 0.24297
17021.68945 0.242939
17023.13086 0.242908
17024.57031 0.242877
17026.01953 0.24287
17027.46094 0.242875
17028.91016 0.242879
17030.34961 0.24288
17031.78906 0.242871
17033.24023 0.242862
17034.67969 0.242853
17036.13086 0.24285
17037.57031 0.242848
17039.01953 0.242847
17040.46094 0.242842
17041.91016 0.242831
17043.34961 0.24282
17044.80078 0.242809
17046.24023 0.242823
17047.68945 0.242841
17049.13086 0.242859
17050.58008 0.242854
17052.01953 0.242815
17053.47070 0.242777
17054.91992 0.242738
17056.35938 0.242733
17057.81055 0.242731
17059.25977 0.242728
17060.69922 0.242727
17062.15039 0.242728
17063.59961 0.242729
17065.03906 0.24273
17066.49023 0.242731
17067.93945 0.242732
17069.38086 0.242733
17070.83008 0.242719
17072.27930 0.242695
17073.73047 0.242671
17075.16992 0.242652
17076.61914 0.242663
17078.07031 0.242675
17079.51953 0.242687
17080.97070 0.242684
17082.41992 0.242673
17083.85938 0.242663
17085.31055 0.24265
17086.75977 0.242633
17088.21094 0.242615
17089.66016 0.242597
17091.10938 0.242595
17092.56055 0.242599
17094.00977 0.242603
17095.46094 0.2426
17096.91016 0.242585
17098.35938 0.242569
17099.81055 0.242554
17101.25977 0.242558
17102.71094 0.242564
17104.16016 0.242571
17105.60938 0.242586
17107.06055 0.242611
17108.50977 0.242637
17109.96094 0.242663
17111.41016 0.242669
17112.85938 0.242675
17114.31055 0.24268
17115.75977 0.242688
17117.21094 0.242697
17118.66992 0.242706
17120.11914 0.242717
17121.57031 0.242744
17123.01953 0.242771
17124.47070 0.242798
17125.92969 0.242806
17127.38086 0.242803
17128.83008 0.2428
17130.27930 0.2428
17131.73047 0.242815
17133.18945 0.242831
17134.64062 0.242846
17136.08984 0.242861
17137.55078 0.242877
17139.00000 0.242892
17140.44922 0.242914
17141.91016 0.242947
17143.35938 0.242981
17144.81055 0.243014
17146.26953 0.243012
17147.72070 0.243004
17149.17969 0.242996
17150.63086 0.243009
17152.08008 0.243047
17153.53906 0.243086
17154.99023 0.243125
17156.44922 0.243125
17157.90039 0.243125
17159.35938 0.243125
17160.81055 0.243131
17162.26953 0.243142
17163.72070 0.243152
17165.17969 0.243165
17166.63086 0.243196
17168.08984 0.243226
17169.53906 0.243257
17171.00000 0.243279
17172.46094 0.243297
17173.91016 0.243316
17175.36914 0.243334
17176.83008 0.243349
17178.27930 0.243365
17179.74023 0.24338
17181.19922 0.243405
17182.65039 0.243433
17184.10938 0.24346
17185.57031 0.243484
17187.02930 0.243504
17188.48047 0.243524
17189.93945 0.243544
17191.40039 0.24355
17192.85938 0.243555
17194.31055 0.243561
17195.76953 0.243577
17197.23047 0.243602
17198.68945 0.243627
17200.15039 0.243654
17201.60938 0.243691
17203.06055 0.243727
17204.51953 0.243763
17205.98047 0.243797
17207.43945 0.243829
17208.90039 0.243861
17210.35938 0.243894
17211.82031 0.243931
17213.27930 0.243969
17214.74023 0.244006
17216.19922 0.244026
17217.66016 0.244043
17219.11914 0.244059
17220.58008 0.244082
17222.03906 0.244116
17223.50000 0.244149
17224.96094 0.244183
17226.41992 0.244205
17227.88086 0.244227
17229.33984 0.244249
17230.80078 0.244283
17232.25977 0.244326
17233.72070 0.24437
17235.18945 0.24441
17236.65039 0.244431
17238.10938 0.244452
17239.57031 0.244472
17241.02930 0.244505
17242.49023 0.244542
17243.96094 0.244579
17245.41992 0.244617
17246.88086 0.244659
17248.33984 0.2447
17249.81055 0.244741
17251.26953 0.244762
17252.73047 0.244779
17254.19922 0.244796
17255.66016 0.244829
17257.11914 0.24488
17258.58008 0.244931
17260.05078 0.244982
17261.50977 0.245003
17262.97070 0.245024
17264.43945 0.245045
17265.90039 0.245053
17267.36914 0.245053
17268.83008 0.245053
17270.28906 0.245061
17271.75977 0.245101
17273.22070 0.24514
17274.68945 0.245179
17276.15039 0.245203
17277.61914 0.245222
17279.08008 0.245241
17280.55078 0.245263
17282.01953 0.245288
17283.48047 0.245314
17284.94922 0.245339
17286.41016 0.245389
17287.88086 0.245441
17289.33984 0.245492
17290.81055 0.245525
17292.27930 0.245543
17293.74023 0.245561
17295.21094 0.245582
17296.67969 0.24562
17298.14062 0.245658
17299.60938 0.245695
17301.08008 0.245712
17302.53906 0.245722
17304.00977 0.245731
17305.48047 0.245733
17306.94922 0.245721
17308.41016 0.245708
17309.88086 0.245696
17311.34961 0.245718
17312.82031 0.245744
17314.27930 0.24577
17315.75000 0.245783
17317.22070 0.245783
17318.68945 0.245783
17320.16016 0.245789
17321.63086 0.245837
17323.09961 0.245885
17324.56055 0.245932
17326.02930 0.245932
17327.50000 0.245912
17328.97070 0.245892
17330.43945 0.245882
17331.91016 0.245896
17333.38086 0.245909
17334.84961 0.245923
17336.32031 0.245969
17337.78906 0.246019
17339.25977 0.246068
17340.73047 0.246098
17342.19922 0.246108
17343.66992 0.246118
17345.14062 0.246125
17346.60938 0.246112
17348.08008 0.246099
17349.55078 0.246086
17351.02930 0.246109
17352.50000 0.246147
17353.97070 0.246185
17355.43945 0.24621
17356.91016 0.246205
17358.38086 0.2462
17359.85938 0.246196
17361.33008 0.246192
17362.80078 0.246188
17364.26953 0.246184
17365.75000 0.246216
17367.22070 0.246282
17368.68945 0.246349
17370.16016 0.246411
17371.64062 0.246434
17373.10938 0.246456
17374.58008 0.246478
17376.06055 0.246509
17377.52930 0.246542
17379.00000 0.246576
17380.48047 0.246607
17381.94922 0.246631
17383.41992 0.246655
17384.90039 0.246679
17386.36914 0.246686
17387.84961 0.24669
17389.32031 0.246695
17390.78906 0.246698
17392.26953 0.246698
17393.75000 0.246699
17395.22070 0.246706
17396.69922 0.246753
17398.16992 0.2468
17399.65039 0.246846
17401.11914 0.246877
17402.59961 0.246902
17404.07031 0.246928
17405.55078 0.246957
17407.01953 0.246991
17408.50000 0.247025
17409.98047 0.247059
17411.44922 0.247095
17412.92969 0.24713
17414.41016 0.247166
17415.88086 0.247207
17417.35938 0.247253
17418.83984 0.247298
17420.31055 0.247337
17421.78906 0.247349
17423.26953 0.247361
17424.75000 0.247372
17426.22070 0.247396
17427.69922 0.247422
17429.17969 0.247448
17430.66016 0.247492
17432.13086 0.247557
17433.60938 0.247622
17435.08984 0.247686
17436.57031 0.247712
17438.05078 0.247738
17439.52930 0.247764
17441.00977 0.247797
17442.48047 0.247833
17443.96094 0.247868
17445.43945 0.247897
17446.91992 0.24791
17448.40039 0.247924
17449.88086 0.247937
17451.35938 0.248
17452.83984 0.248068
17454.32031 0.248135
17455.80078 0.248174
17457.27930 0.248188
17458.75977 0.248202
17460.24023 0.248216
17461.72070 0.248228
17463.19922 0.248241
17464.67969 0.248254
17466.16016 0.248298
17467.65039 0.248352
17469.13086 0.248405
17470.60938 0.248449
17472.08984 0.248481
17473.57031 0.248513
17475.05078 0.248544
17476.53906 0.248545
17478.01953 0.248545
17479.50000 0.248546
17480.98047 0.248578
17482.46094 0.248627
17483.94922 0.248676
17485.42969 0.248705
17486.91016 0.248688
17488.39062 0.248671
17489.88086 0.248653
17491.35938 0.248685
17492.83984 0.248721
17494.33008 0.248757
17495.81055 0.248781
17497.28906 0.248795
17498.77930 0.248808
17500.25977 0.248828
17501.75000 0.248875
17503.23047 0.248922
17504.71094 0.248969
17506.19922 0.248979
17507.67969 0.248981
17509.16992 0.248983
17510.65039 0.248975
17512.14062 0.248955
17513.61914 0.248934
17515.10938 0.248916
17516.58984 0.248923
17518.08008 0.24893
17519.56055 0.248937
17521.05078 0.248959
17522.53906 0.248987
17524.01953 0.249015
17525.50977 0.249026
17526.99023 0.249005
17528.48047 0.248984
17529.96094 0.248962
17531.44922 0.248975
17532.93945 0.248989
17534.42969 0.249003
17535.91016 0.249027
17537.40039 0.249057
17538.89062 0.249088
17540.36914 0.249113
17541.85938 0.249124
17543.34961 0.249135
17544.83984 0.249145
17546.32031 0.249136
17547.81055 0.249124
17549.30078 0.249112
17550.78906 0.249108
17552.27930 0.249113
17553.75977 0.249117
17555.25000 0.249118
17556.74023 0.249099
17558.23047 0.249081
17559.72070 0.249062
17561.21094 0.249079
17562.69922 0.249104
17564.18945 0.249128
17565.67969 0.249141
17567.16992 0.249139
17568.65039 0.249138
17570.14062 0.249139
17571.63086 0.249163
17573.11914 0.249188
17574.61914 0.249212
17576.10938 0.249196
17577.59961 0.249166
17579.08984 0.249136
17580.58008 0.249119
17582.07031 0.249121
17583.56055 0.249124
17585.05078 0.249127
17586.53906 0.249133
17588.02930 0.249139
17589.51953 0.249146
17591.01953 0.249157
17592.50977 0.249169
17594.00000 0.249182
17595.49023 0.24919
17596.98047 0.249188
17598.47070 0.249185
17599.97070 0.249183
17601.46094 0.249187
17602.94922 0.249192
17604.44922 0.249197
17605.93945 0.249229
17607.42969 0.249279
17608.91992 0.249328
17610.41992 0.249357
17611.91016 0.249331
17613.40039 0.249306
17614.90039 0.24928
17616.39062 0.24929
17617.88086 0.249303
17619.38086 0.249315
17620.86914 0.249341
17622.36914 0.249377
17623.85938 0.249413
17625.35938 0.249445
17626.84961 0.249463
17628.34961 0.249481
17629.83984 0.2495
17631.33008 0.24954
17632.83008 0.249583
17634.32031 0.249626
17635.82031 0.24964
17637.32031 0.249631
17638.81055 0.249621
17640.31055 0.249611
17641.80078 0.249603
17643.30078 0.249594
17644.78906 0.249586
17646.28906 0.249591
17647.78906 0.249598
17649.27930 0.249605
17650.77930 0.24961
17652.27930 0.249612
17653.76953 0.249614
17655.26953 0.249616
17656.76953 0.249616
17658.26953 0.249617
17659.75977 0.249617
17661.25977 0.249627
17662.75977 0.249639
17664.25977 0.249651
17665.75000 0.249647
17667.25000 0.249627
17668.75000 0.249607
17670.25000 0.249598
17671.75000 0.249641
17673.25000 0.249685
17674.74023 0.249728
17676.24023 0.249695
17677.74023 0.249645
17679.24023 0.249596
17680.74023 0.249592
17682.24023 0.249635
17683.74023 0.249677
17685.24023 0.249708
17686.74023 0.249678
17688.24023 0.249647
17689.74023 0.249616
17691.24023 0.249598
17692.74023 0.249582
17694.24023 0.249566
17695.74023 0.249555
17697.24023 0.24955
17698.74023 0.249544
17700.24023 0.249531
17701.74023 0.249478
17703.24023 0.249425
17704.74023 0.249372
17706.24023 0.249342
17707.75000 0.249318
17709.25000 0.249293
17710.75000 0.249274
17712.25000 0.249261
17713.75000 0.249248
17715.25977 0.249236
17716.75977 0.249233
17718.25977 0.249229
17719.75977 0.249225
17721.26953 0.249205
17722.76953 0.249183
17724.26953 0.24916
17725.76953 0.249124
17727.27930 0.249075
17728.77930 0.249025
17730.27930 0.248983
17731.78906 0.248972
17733.28906 0.248962
17734.78906 0.248951
17736.30078 0.248917
17737.80078 0.24888
17739.31055 0.248843
17740.81055 0.248819
17742.31055 0.248807
17743.82031 0.248794
17745.32031 0.24877
17746.83008 0.248705
17748.33008 0.24864
17749.83984 0.248575
17751.33984 0.248544
17752.84961 0.248517
17754.34961 0.24849
17755.85938 0.248475
17757.36914 0.24847
17758.86914 0.248465
17760.38086 0.248449
17761.88086 0.248401
17763.39062 0.248354
17764.90039 0.248307
17766.40039 0.248251
17767.91016 0.248193
17769.41992 0.248136
17770.91992 0.24808
17772.42969 0.248023
17773.93945 0.247967
17775.43945 0.247925
17776.94922 0.247916
17778.46094 0.247907
17779.96094 0.247898
17781.47070 0.247848
17782.98047 0.247797
17784.49023 0.247746
17786.00000 0.247723
17787.50977 0.247714
17789.00977 0.247705
17790.51953 0.247679
17792.02930 0.247624
17793.53906 0.247568
17795.05078 0.247512
17796.56055 0.24746
17798.07031 0.247408
17799.58008 0.247356
17801.08008 0.247318
17802.58984 0.247286
17804.09961 0.247255
17805.60938 0.24721
17807.11914 0.247147
17808.63086 0.247084
17810.14062 0.247021
17811.65039 0.246959
17813.16016 0.246897
17814.67969 0.246836
17816.18945 0.246795
17817.69922 0.24676
17819.21094 0.246725
17820.72070 0.246697
17822.23047 0.246678
17823.74023 0.246659
17825.25000 0.246628
17826.75977 0.246543
17828.27930 0.246457
17829.78906 0.246372
17831.30078 0.246293
17832.81055 0.246215
17834.32031 0.246137
17835.83984 0.246093
17837.34961 0.246077
17838.85938 0.246061
17840.36914 0.246036
17841.89062 0.245981
17843.40039 0.245927
17844.91016 0.245873
17846.42969 0.245804
17847.93945 0.245734
17849.44922 0.245664
17850.96094 0.245608
17852.48047 0.24556
17853.99023 0.245512
17855.50977 0.245454
17857.01953 0.245374
17858.53906 0.245294
17860.05078 0.245214
17861.56055 0.24514
17863.08008 0.245065
17864.58984 0.24499
17866.10938 0.244934
17867.61914 0.244886
17869.14062 0.244837
17870.65039 0.244771
17872.16992 0.244682
17873.68945 0.244592
17875.19922 0.244507
17876.72070 0.244449
17878.23047 0.24439
17879.75000 0.244332
17881.25977 0.244269
17882.77930 0.244205
17884.30078 0.244142
17885.81055 0.24406
17887.33008 0.243963
17888.84961 0.243865
17890.35938 0.243777
17891.88086 0.243719
17893.40039 0.24366
17894.91992 0.243602
17896.42969 0.243517
17897.94922 0.24343
17899.47070 0.243343
17900.99023 0.243266
17902.50000 0.243194
17904.01953 0.243122
17905.53906 0.24303
17907.06055 0.242903
17908.58008 0.242776
17910.09961 0.242652
17911.61914 0.242587
17913.13086 0.242522
17914.65039 0.242457
17916.16992 0.242356
17917.68945 0.242244
17919.21094 0.242132
17920.73047 0.242049
17922.25000 0.241997
17923.76953 0.241944
17925.28906 0.241887
17926.81055 0.241809
17928.33008 0.24173
17929.84961 0.241651
17931.36914 0.24154
17932.89062 0.241425
17934.41016 0.241311
17935.92969 0.241203
17937.44922 0.2411
17938.97070 0.240997
17940.49023 0.240895
17942.01953 0.240795
17943.53906 0.240695
17945.06055 0.240594
17946.58008 0.240475
17948.09961 0.240356
17949.61914 0.240237
17951.15039 0.240144
17952.66992 0.24006
17954.18945 0.239976
17955.71094 0.239873
17957.24023 0.239748
17958.75977 0.239622
17960.27930 0.239504
17961.80078 0.239414
17963.33008 0.239324
17964.84961 0.239234
17966.36914 0.239154
17967.90039 0.239075
17969.41992 0.238996
17970.94922 0.238893
17972.47070 0.238774
17973.99023 0.238655
17975.51953 0.23853
17977.03906 0.238391
17978.57031 0.238251
17980.08984 0.238114
17981.61914 0.238014
17983.14062 0.237914
17984.66992 0.237814
17986.18945 0.237739
17987.71094 0.237672
17989.24023 0.237604
17990.76953 0.237498
17992.28906 0.237351
17993.82031 0.237205
17995.33984 0.23707
17996.86914 0.236976
17998.39062 0.236882
17999.91992 0.236787
18001.44922 0.236648
18002.97070 0.236506
18004.50000 0.236364
18006.02930 0.236208
18007.55078 0.236046
18009.08008 0.235883
18010.60938 0.235727
18012.14062 0.23558
18013.66016 0.235434
18015.18945 0.235291
18016.72070 0.235179
18018.25000 0.235067
18019.76953 0.234955
18021.30078 0.23482
18022.83008 0.234681
18024.35938 0.234542
18025.89062 0.234382
18027.41992 0.234206
18028.93945 0.234029
18030.47070 0.23387
18032.00000 0.233748
18033.52930 0.233626
18035.06055 0.233504
18036.58984 0.233358
18038.11914 0.233213
18039.65039 0.233067
18041.17969 0.232885
18042.71094 0.232693
18044.24023 0.232501
18045.76953 0.232323
18047.30078 0.232159
18048.83008 0.231997
18050.35938 0.231838
18051.89062 0.231697
18053.41992 0.231555
18054.94922 0.231414
18056.48047 0.231248
18058.00977 0.231081
18059.53906 0.230914
18061.08008 0.230776
18062.60938 0.230651
18064.14062 0.230525
18065.66992 0.230384
18067.19922 0.230223
18068.74023 0.230063
18070.26953 0.229903
18071.80078 0.229747
18073.33008 0.229592
18074.86914 0.229436
18076.40039 0.229242
18077.92969 0.229045
18079.46094 0.228848
18081.00000 0.22867
18082.52930 0.228504
18084.06055 0.228337
18085.59961 0.22817
18087.13086 0.228002
18088.66016 0.227835
18090.19922 0.227672
18091.73047 0.22754
18093.26953 0.227408
18094.80078 0.227275
18096.33008 0.227092
18097.86914 0.226901
18099.40039 0.226709
18100.93945 0.226509
18102.47070 0.226305
18104.00977 0.2261
18105.53906 0.225914
18107.08008 0.225764
18108.61914 0.225614
18110.15039 0.22546
18111.68945 0.225271
18113.22070 0.225081
18114.75977 0.224891
18116.28906 0.224731
18117.83008 0.224575
18119.36914 0.22442
18120.90039 0.224267
18122.43945 0.224115
18123.98047 0.223964
18125.50977 0.223807
18127.05078 0.22364
18128.58984 0.223472
18130.11914 0.223302
18131.66016 0.223096
18133.19922 0.222891
18134.74023 0.222685
18136.27930 0.22252
18137.81055 0.222362
18139.34961 0.222204
18140.89062 0.222029
18142.42969 0.221841
18143.96094 0.221654
18145.50000 0.221466
18147.03906 0.221277
18148.58008 0.221089
18150.11914 0.220899
18151.66016 0.220696
18153.19922 0.220493
18154.74023 0.220291
18156.27930 0.220152
18157.82031 0.220026
18159.35938 0.2199
18160.90039 0.219751
18162.43945 0.219586
18163.98047 0.21942
18165.51953 0.219249
18167.06055 0.219065
18168.59961 0.218882
18170.14062 0.2187
18171.67969 0.218532
18173.22070 0.218364
18174.75977 0.218196
18176.30078 0.218004
18177.83984 0.217808
18179.38086 0.217611
18180.92969 0.217443
18182.47070 0.217292
18184.00977 0.217143
18185.55078 0.216982
18187.08984 0.216804
18188.64062 0.216625
18190.17969 0.216444
18191.72070 0.216246
18193.25977 0.216047
18194.81055 0.215847
18196.34961 0.215682
18197.89062 0.215522
18199.43945 0.215362
18200.98047 0.215167
18202.51953 0.214951
18204.07031 0.214736
18205.60938 0.214531
18207.15039 0.21434
18208.69922 0.214148
18210.24023 0.213955
18211.78906 0.213751
18213.33008 0.213547
18214.86914 0.213343
18216.41992 0.21315
18217.96094 0.212957
18219.50977 0.212765
18221.05078 0.21257
18222.59961 0.212374
18224.14062 0.212179
18225.68945 0.211976
18227.23047 0.211765
18228.77930 0.211554
18230.33008 0.211338
18231.86914 0.211103
18233.41992 0.210867
18234.96094 0.210632
18236.50977 0.210456
18238.06055 0.210282
18239.59961 0.210108
18241.15039 0.20996
18242.69922 0.209822
18244.24023 0.209683
18245.78906 0.2095
18247.33984 0.209273
18248.88086 0.209047
18250.42969 0.208833
18251.98047 0.208652
18253.52930 0.208472
18255.08008 0.208292
18256.61914 0.208112
18258.16992 0.207933
18259.72070 0.207753
18261.26953 0.207545
18262.82031 0.207331
18264.36914 0.207116
18265.91016 0.206887
18267.46094 0.206648
18269.00977 0.206409
18270.56055 0.206183
18272.10938 0.205982
18273.66016 0.205781
18275.21094 0.205581
18276.75977 0.205388
18278.31055 0.205196
18279.85938 0.205003
18281.41016 0.20486
18282.96094 0.204723
18284.50977 0.204586
18286.06055 0.204395
18287.60938 0.204178
18289.16016 0.203962
18290.71094 0.203759
18292.25977 0.203572
18293.81055 0.203386
18295.36914 0.203192
18296.91992 0.202974
18298.47070 0.202756
18300.01953 0.202539
18301.57031 0.202403
18303.13086 0.202267
18304.67969 0.202131
18306.23047 0.201971
18307.77930 0.201804
18309.33008 0.201638
18310.89062 0.201462
18312.43945 0.201279
18313.99023 0.201096
18315.53906 0.200915
18317.09961 0.200738
18318.65039 0.200561
18320.21094 0.200384
18321.75977 0.200207
18323.31055 0.200029
18324.86914 0.199851
18326.41992 0.199659
18327.97070 0.199467
18329.52930 0.199274
18331.08008 0.199115
18332.64062 0.198971
18334.18945 0.198826
18335.75000 0.198697
18337.30078 0.198583
18338.85938 0.198469
18340.41016 0.198346
18341.96094 0.198195
18343.51953 0.198045
18345.08008 0.197896
18346.63086 0.19777
18348.18945 0.197645
18349.74023 0.197519
18351.30078 0.197349
18352.85938 0.197171
18354.41016 0.196992
18355.97070 0.196846
18357.52930 0.196718
18359.08008 0.19659
18360.64062 0.196461
18362.19922 0.196331
18363.75000 0.196202
18365.31055 0.196066
18366.86914 0.195907
18368.41992 0.195747
18369.98047 0.195588
18371.53906 0.195433
18373.09961 0.195278
18374.66016 0.195124
18376.21094 0.194984
18377.76953 0.194847
18379.33008 0.194711
18380.89062 0.194563
18382.44922 0.194405
18384.00977 0.194248
18385.56055 0.1941
18387.13086 0.19397
18388.67969 0.193839
18390.24023 0.193718
18391.80078 0.193645
18393.35938 0.193573
18394.91992 0.1935
18396.48047 0.193362
18398.03906 0.193221
18399.59961 0.19308
18401.16016 0.192944
18402.72070 0.19281
18404.27930 0.192676
18405.83984 0.192523
18407.40039 0.192355
18408.96094 0.192187
18410.52930 0.192046
18412.08984 0.19196
18413.65039 0.191873
18415.21094 0.191779
18416.76953 0.191629
18418.33008 0.191479
18419.89062 0.19133
18421.46094 0.19124
18423.01953 0.191155
18424.58008 0.19107
18426.14062 0.190996
18427.71094 0.190927
18429.26953 0.190858
18430.83008 0.190775
18432.39062 0.190681
18433.96094 0.190587
18435.51953 0.190503
18437.08008 0.190439
18438.65039 0.190375
18440.21094 0.190312
18441.76953 0.190255
18443.33984 0.190197
18444.90039 0.19014
18446.47070 0.190041
18448.02930 0.189938
18449.59961 0.189836
18451.16016 0.18977
18452.72070 0.189717
18454.28906 0.189664
18455.84961 0.189609
18457.41992 0.189553
18458.98047 0.189496
18460.55078 0.189421
18462.11914 0.189311
18463.67969 0.189201
18465.25000 0.189094
18466.81055 0.188997
18468.38086 0.1889
18469.93945 0.188804
18471.50977 0.188806
18473.08008 0.188812
18474.64062 0.188819
18476.21094 0.188777
18477.77930 0.188721
18479.33984 0.188664
18480.91016 0.188579
18482.48047 0.188474
18484.03906 0.188368
18485.60938 0.1883
18487.17969 0.18829
18488.75000 0.18828
18490.31055 0.188262
18491.88086 0.188217
18493.44922 0.188171
18495.01953 0.188125
18496.58984 0.188071
18498.16016 0.188016
18499.72070 0.187962
18501.28906 0.187935
18502.85938 0.187914
18504.42969 0.187893
18506.00000 0.187871
18507.57031 0.187849
18509.14062 0.187827
18510.71094 0.187812
18512.27930 0.187809
18513.84961 0.187805
18515.41992 0.187806
18516.99023 0.187818
18518.56055 0.187829
18520.13086 0.187839
18521.69922 0.187829
18523.26953 0.187819
18524.83984 0.18781
18526.41016 0.187846
18527.98047 0.187887
18529.55078 0.187929
18531.11914 0.187951
18532.69922 0.187966
18534.26953 0.187981
18535.83984 0.187992
18537.41016 0.188
18538.98047 0.188008
18540.55078 0.188014
18542.13086 0.188015
18543.69922 0.188017
18545.26953 0.188025
18546.83984 0.188068
18548.41992 0.18811
18549.99023 0.188153
18551.56055 0.188239
18553.13086 0.188326
18554.71094 0.188412
18556.27930 0.188429
18557.85938 0.18843
18559.42969 0.188431
18561.00000 0.188473
18562.58008 0.188538
18564.15039 0.188603
18565.72070 0.188663
18567.30078 0.188717
18568.86914 0.188772
18570.44922 0.188831
18572.01953 0.188902
18573.59961 0.188973
18575.16992 0.189043
18576.75000 0.189114
18578.32031 0.189186
18579.90039 0.189257
18581.47070 0.189367
18583.05078 0.18948
18584.61914 0.189593
18586.19922 0.189679
18587.77930 0.189756
18589.34961 0.189833
18590.92969 0.189936
18592.50977 0.190057
18594.08008 0.190178
18595.66016 0.1903
18597.24023 0.190424
18598.81055 0.190549
18600.39062 0.190677
18601.97070 0.190816
18603.55078 0.190954
18605.11914 0.191093
18606.69922 0.191235
18608.27930 0.191377
18609.85938 0.191519
18611.43945 0.191639
18613.00977 0.191757
18614.58984 0.191875
18616.16992 0.191977
18617.75000 0.192074
18619.33008 0.192171
18620.91016 0.192305
18622.48047 0.192467
18624.06055 0.192628
18625.64062 0.19278
18627.22070 0.192917
18628.80078 0.193055
18630.38086 0.193201
18631.96094 0.193377
18633.53906 0.193551
18635.11914 0.193726
18636.69922 0.193896
18638.27930 0.194065
18639.85938 0.194234
18641.43945 0.194461
18643.02930 0.194694
18644.60938 0.194927
18646.18945 0.195122
18647.76953 0.195305
18649.34961 0.195488
18650.92969 0.195658
18652.50977 0.19582
18654.08984 0.195981
18655.67969 0.196151
18657.25977 0.196332
18658.83984 0.196514
18660.41992 0.196696
18662.00000 0.196882
18663.58984 0.197067
18665.16992 0.197261
18666.75000 0.19752
18668.33008 0.197779
18669.91992 0.198039
18671.50000 0.198278
18673.08008 0.198516
18674.66992 0.198754
18676.25000 0.199054
18677.83008 0.19937
18679.41992 0.199686
18681.00000 0.199949
18682.58984 0.200181
18684.16992 0.200413
18685.75977 0.200642
18687.33984 0.200868
18688.91992 0.201095
18690.50977 0.201308
18692.08984 0.201493
18693.67969 0.201679
18695.25977 0.201887
18696.84961 0.202211
18698.43945 0.202535
18700.01953 0.202858
18701.60938 0.203108
18703.18945 0.203359
18704.77930 0.203609
18706.36914 0.203895
18707.94922 0.204186
18709.53906 0.204477
18711.11914 0.204772
18712.71094 0.205069
18714.30078 0.205366
18715.88086 0.205651
18717.47070 0.205926
18719.06055 0.206201
18720.64062 0.20648
18722.23047 0.206764
18723.82031 0.207049
18725.41016 0.207343
18727.00000 0.207664
18728.58008 0.207984
18730.16992 0.208306
18731.75977 0.208652
18733.34961 0.208999
18734.93945 0.209345
18736.52930 0.209635
18738.11914 0.209923
18739.69922 0.210211
18741.28906 0.210508
18742.88086 0.210808
18744.47070 0.211107
18746.06055 0.211365
18747.65039 0.211601
18749.24023 0.211837
18750.83008 0.212093
18752.41992 0.212368
18754.00977 0.212642
18755.59961 0.212937
18757.18945 0.213264
18758.77930 0.213592
18760.36914 0.21392
18761.96094 0.214248
18763.55078 0.214577
18765.14062 0.214905
18766.74023 0.215228
18768.33008 0.215552
18769.91992 0.215875
18771.50977 0.216189
18773.09961 0.216503
18774.69922 0.216816
18776.28906 0.217117
18777.88086 0.217414
18779.47070 0.217712
18781.06055 0.217978
18782.66016 0.218229
18784.25000 0.218481
18785.83984 0.218749
18787.43945 0.219033
18789.02930 0.219317
18790.61914 0.219598
18792.21094 0.219874
18793.81055 0.22015
18795.40039 0.220424
18797.00000 0.220694
18798.58984 0.220965
18800.17969 0.221231
18801.77930 0.22147
18803.36914 0.221708
18804.97070 0.221946
18806.56055 0.222157
18808.16016 0.222366
18809.75000 0.222576
18811.34961 0.222769
18812.93945 0.222959
18814.53906 0.22315
18816.13086 0.223403
18817.73047 0.223682
18819.32031 0.223962
18820.91992 0.224153
18822.51953 0.22428
18824.10938 0.224406
18825.71094 0.224539
18827.30078 0.224681
18828.90039 0.224823
18830.50000 0.224963
18832.08984 0.225096
18833.68945 0.22523
18835.28906 0.225361
18836.88086 0.225486
18838.48047 0.225611
18840.08008 0.225733
18841.67969 0.225794
18843.27930 0.225855
18844.86914 0.225916
18846.47070 0.225944
18848.07031 0.22597
18849.66992 0.225996
18851.26953 0.22603
18852.85938 0.226066
18854.46094 0.226102
18856.06055 0.226069
18857.66016 0.226002
18859.25977 0.225936
18860.85938 0.22587
18862.46094 0.225804
18864.06055 0.225739
18865.66016 0.225648
18867.25977 0.225522
18868.85938 0.225395
18870.46094 0.225266
18872.06055 0.225128
18873.66016 0.224989
18875.25977 0.224849
18876.85938 0.224699
18878.46094 0.224549
18880.06055 0.224395
18881.66016 0.224126
18883.25977 0.223857
18884.85938 0.223588
18886.46094 0.223286
18888.07031 0.22298
18889.66992 0.222674
18891.26953 0.222331
18892.86914 0.221977
18894.47070 0.221623
18896.08008 0.221216
18897.67969 0.220784
18899.27930 0.220351
18900.88086 0.219908
18902.49023 0.219456
18904.08984 0.219004
18905.68945 0.218529
18907.28906 0.218022
18908.90039 0.217515
18910.50000 0.217
18912.10938 0.216467
18913.71094 0.215933
18915.31055 0.215392
18916.91992 0.214817
18918.51953 0.214242
18920.13086 0.213656
18921.73047 0.21294
18923.33008 0.212224
18924.93945 0.211508
18926.53906 0.210793
18928.15039 0.210077
18929.75000 0.209362
18931.35938 0.208545
18932.96094 0.207711
18934.57031 0.206876
18936.17969 0.206091
18937.77930 0.205325
18939.39062 0.204559
18940.99023 0.203733
18942.59961 0.20287
18944.21094 0.202008
18945.81055 0.201131
18947.41992 0.200242
18949.02930 0.199352
18950.63086 0.198458
18952.24023 0.197555
18953.84961 0.196652
18955.44922 0.195712
18957.06055 0.19468
18958.66992 0.193648
18960.27930 0.192625
18961.88086 0.191647
18963.49023 0.190668
18965.09961 0.18969
18966.71094 0.188736
18968.32031 0.18778
18969.91992 0.186826
18971.52930 0.185769
18973.14062 0.184707
18974.75000 0.183644
18976.35938 0.182523
18977.97070 0.181391
18979.58008 0.180259
18981.18945 0.179037
18982.80078 0.177782
18984.41016 0.176527
18986.01953 0.175217
18987.63086 0.173872
18989.24023 0.172529
18990.84961 0.171171
18992.46094 0.169803
18994.07031 0.168433
18995.67969 0.167099
18997.28906 0.16581
18998.90039 0.164521
19000.50977 0.163266
19002.11914 0.162084
19003.73047 0.160902
19005.34961 0.159728
19006.96094 0.158589
19008.57031 0.15745
19010.17969 0.156312
19011.78906 0.155191
19013.40039 0.15407
19015.01953 0.152946
19016.63086 0.151706
19018.24023 0.150464
19019.84961 0.149224
19021.47070 0.147958
19023.08008 0.14669
19024.68945 0.145422
19026.31055 0.144196
19027.91992 0.14298
19029.52930 0.141764
19031.15039 0.140582
19032.75977 0.139411
19034.38086 0.138242
19035.99023 0.137079
19037.59961 0.135918
19039.22070 0.134758
19040.83008 0.133587
19042.44922 0.132407
19044.06055 0.131228
19045.67969 0.130015
19047.28906 0.128755
19048.91016 0.127494
19050.51953 0.126184
19052.14062 0.124772
19053.75000 0.123359
19055.36914 0.121969
19056.98047 0.120665
19058.59961 0.119361
19060.22070 0.11807
19061.83008 0.116881
19063.44922 0.115689
19065.07031 0.114501
19066.67969 0.113387
19068.30078 0.112272
19069.91992 0.111157
19071.52930 0.110074
19073.15039 0.108992
19074.76953 0.10791
19076.38086 0.106886
19078.00000 0.105871
19079.61914 0.104855
19081.24023 0.103777
19082.85938 0.10268
19084.47070 0.101581
19086.08984 0.100558
19087.71094 0.099573
19089.33008 0.098586
19090.94922 0.097608
19092.57031 0.096636
19094.18945 0.095665
19095.80078 0.094657
19097.42969 0.093611
19099.03906 0.092566
19100.66016 0.091554
19102.27930 0.090587
19103.90039 0.089618
19105.51953 0.088666
19107.14062 0.087746
19108.75977 0.086824
19110.38086 0.0859
19112.00000 0.084969
19113.61914 0.084038
19115.25000 0.083111
19116.86914 0.082211
19118.49023 0.081311
19120.10938 0.080412
19121.73047 0.079524
19123.34961 0.078636
19124.97070 0.077748
19126.59961 0.076904
19128.22070 0.076061
19129.83984 0.075217
19131.46094 0.07431
19133.08008 0.073394
19134.71094 0.072478
19136.33008 0.071652
19137.94922 0.070844
19139.57031 0.070037
19141.19922 0.069253
19142.82031 0.068478
19144.43945 0.067702
19146.07031 0.066926
19147.68945 0.066147
19149.31055 0.065369
19150.93945 0.064634
19152.56055 0.063929
19154.18945 0.063224
19155.81055 0.062526
19157.43945 0.061836
19159.06055 0.061147
19160.67969 0.060483
19162.31055 0.059858
19163.92969 0.059233
19165.56055 0.0586
19167.17969 0.057952
19168.81055 0.057305
19170.43945 0.056664
19172.06055 0.056047
19173.68945 0.05543
19175.31055 0.054817
19176.93945 0.054228
19178.56055 0.053639
19180.18945 0.053058
19181.82031 0.052538
19183.43945 0.052018
19185.07031 0.051496
19186.69922 0.050936
19188.32031 0.050376
19189.94922 0.049815
19191.58008 0.049198
19193.21094 0.048579
19194.83008 0.047959
19196.46094 0.047392
19198.08984 0.04683
19199.72070 0.046268
19201.33984 0.045706
19202.97070 0.045143
19204.59961 0.04458
19206.23047 0.044017
19207.85938 0.043455
19209.49023 0.042892
19211.11914 0.042397
19212.75000 0.041933
19214.38086 0.041469
19216.00000 0.041072
19217.63086 0.040716
19219.25977 0.04036
19220.89062 0.039973
19222.51953 0.03956
19224.15039 0.039147
19225.77930 0.038729
19227.41016 0.038305
19229.03906 0.037881
19230.66992 0.03747
19232.30078 0.037079
19233.93945 0.036687
19235.57031 0.036278
19237.19922 0.03584
19238.83008 0.035402
19240.46094 0.034968
19242.08984 0.03455
19243.72070 0.034132
19245.35938 0.033736
19246.99023 0.033421
19248.61914 0.033105
19250.25000 0.032786
19251.88086 0.032448
19253.51953 0.03211
19255.15039 0.031772
19256.77930 0.031442
19258.41016 0.031112
19260.05078 0.030784
19261.67969 0.030509
19263.31055 0.030235
19264.94922 0.029961
19266.58008 0.029545
19268.21094 0.029125
19269.84961 0.028704
19271.48047 0.028384
19273.11914 0.028074
19274.75000 0.027763
19276.39062 0.02753
19278.01953 0.027311
19279.66016 0.027091
19281.28906 0.02676
19282.92969 0.026399
19284.56055 0.026038
19286.19922 0.025761
19287.83008 0.025516
19289.47070 0.02527
19291.09961 0.02501
19292.74023 0.024742
19294.36914 0.024474
19296.00977 0.024223
19297.65039 0.023982
19299.27930 0.023741
19300.91992 0.023489
19302.56055 0.023228
19304.18945 0.022967
19305.83008 0.022742
19307.47070 0.02255
19309.09961 0.022359
19310.74023 0.022127
19312.38086 0.021848
19314.01953 0.021568
19315.65039 0.021308
19317.28906 0.021076
19318.92969 0.020844
19320.57031 0.020634
19322.21094 0.020465
19323.84961 0.020297
19325.48047 0.020116
19327.11914 0.019905
19328.75977 0.019694
19330.40039 0.019487
19332.03906 0.019293
19333.67969 0.019099
19335.32031 0.018905
19336.96094 0.01871
19338.59961 0.018515
19340.24023 0.018322
19341.88086 0.018139
19343.51953 0.017956
19345.16016 0.017776
19346.80078 0.017617
19348.43945 0.017458
19350.08008 0.017298
19351.72070 0.017122
19353.35938 0.016946
19355.00000 0.016769
19356.64062 0.01659
19358.28906 0.016412
19359.92969 0.016233
19361.57031 0.01614
19363.21094 0.016051
19364.84961 0.015962
19366.49023 0.015773
19368.14062 0.015574
19369.77930 0.015374
19371.41992 0.015209
19373.06055 0.015048
19374.71094 0.014888
19376.34961 0.014767
19377.99023 0.014656
19379.64062 0.014544
19381.27930 0.014416
19382.91992 0.014284
19384.57031 0.014151
19386.21094 0.013992
19387.84961 0.013823
19389.50000 0.013654
19391.14062 0.013525
19392.78906 0.013413
19394.42969 0.013301
19396.08008 0.013162
19397.72070 0.013008
19399.36914 0.012853
19401.00977 0.01271
19402.66016 0.012574
19404.30078 0.012438
19405.94922 0.012331
19407.58984 0.012244
19409.24023 0.012158
19410.88086 0.012082
19412.52930 0.012014
19414.17969 0.011947
19415.82031 0.011847
19417.47070 0.011715
19419.11914 0.011582
19420.75977 0.011463
19422.41016 0.011359
19424.05078 0.011255
19425.69922 0.01116
19427.34961 0.011078
19429.00000 0.010995
19430.64062 0.010896
19432.28906 0.010771
19433.93945 0.010647
19435.58984 0.010534
19437.24023 0.010445
19438.88086 0.010356
19440.52930 0.010263
19442.17969 0.010163
19443.83008 0.010063
19445.48047 0.009968
19447.13086 0.009889
19448.77930 0.009809
19450.42969 0.009729
19452.08008 0.00965
19453.72070 0.009571
19455.36914 0.00949
19457.01953 0.009402
19458.66992 0.009314
19460.32031 0.009227
19461.97070 0.009138
19463.63086 0.00905
19465.27930 0.008965
19466.92969 0.008895
19468.58008 0.008826
19470.23047 0.008753
19471.88086 0.008659
19473.52930 0.008565
19475.17969 0.008477
19476.83008 0.008444
19478.48047 0.008411
19480.13086 0.008372
19481.78906 0.008264
19483.43945 0.008157
19485.08984 0.008052
19486.74023 0.007993
19488.40039 0.007934
19490.05078 0.007875
19491.69922 0.00781
19493.35938 0.007744
19495.00977 0.007679
19496.66016 0.007591
19498.31055 0.007502
19499.97070 0.007414
19501.61914 0.007386
19503.27930 0.007359
19504.92969 0.007333
19506.58008 0.007248
19508.24023 0.007161
19509.89062 0.007074
19511.53906 0.007039
19513.19922 0.007007
19514.84961 0.006976
19516.50977 0.006946
19518.16016 0.006917
19519.82031 0.006887
19521.47070 0.006795
19523.13086 0.006694
19524.78906 0.006594
19526.43945 0.006542
19528.09961 0.006498
19529.75000 0.006453
19531.41016 0.0064
19533.06055 0.006346
19534.72070 0.006291
19536.38086 0.006239
19538.03906 0.006187
19539.68945 0.006136
19541.34961 0.006071
19543.00977 0.006004
19544.66016 0.005936
19546.32031 0.00589
19547.98047 0.005849
19549.63086 0.005808
19551.28906 0.005755
19552.94922 0.005699
19554.60938 0.005642
19556.26953 0.00562
19557.92969 0.005608
19559.58008 0.005596
19561.24023 0.005535
19562.90039 0.005458
19564.56055 0.005381
19566.22070 0.005342
19567.88086 0.005315
19569.53906 0.005289
19571.19922 0.005275
19572.85938 0.005266
19574.51953 0.005257
19576.17969 0.00521
19577.83984 0.005147
19579.50000 0.005084
19581.16016 0.005038
19582.82031 0.004999
19584.48047 0.00496
19586.14062 0.004908
19587.80078 0.00485
19589.46094 0.004792
19591.11914 0.004733
19592.77930 0.004672
19594.43945 0.004612
19596.10938 0.004593
19597.76953 0.004595
19599.42969 0.004597
19601.08984 0.004568
19602.75000 0.004524
19604.41992 0.00448
19606.08008 0.00444
19607.74023 0.0044
19609.40039 0.004361
19611.07031 0.004327
19612.73047 0.004297
19614.39062 0.004266
19616.05078 0.004262
19617.72070 0.004273
19619.38086 0.004284
19621.03906 0.004246
19622.71094 0.004177
19624.36914 0.004109
19626.03906 0.004073
19627.69922 0.004056
19629.36914 0.004039
19631.02930 0.004
19632.69922 0.003946
19634.35938 0.003892
19636.02930 0.003839
19637.68945 0.003788
19639.35938 0.003736
19641.01953 0.003707
19642.68945 0.003691
19644.34961 0.003675
19646.01953 0.003674
19647.67969 0.003683
19649.34961 0.003692
19651.01953 0.003654
19652.67969 0.003588
19654.34961 0.003521
19656.01953 0.003492
19657.67969 0.003488
19659.34961 0.003483
19661.01953 0.003469
19662.67969 0.003448
19664.34961 0.003427
19666.01953 0.003407
19667.68945 0.003387
19669.34961 0.003368
19671.01953 0.003371
19672.68945 0.00339
19674.35938 0.003409
19676.02930 0.003368
19677.69922 0.00329
19679.35938 0.003211
19681.02930 0.003161
19682.69922 0.003128
19684.36914 0.003095
19686.03906 0.003089
19687.71094 0.0031
19689.38086 0.003112
19691.05078 0.003079
19692.72070 0.00302
19694.39062 0.002962
19696.06055 0.002906
19697.73047 0.002853
19699.40039 0.002799
19701.07031 0.002807
19702.74023 0.002849
19704.41016 0.002891
19706.08008 0.002892
19707.75000 0.002871
19709.41992 0.00285
19711.08984 0.002811
19712.76953 0.002762
19714.43945 0.002713
19716.10938 0.002681
19717.77930 0.002658
19719.44922 0.002634
19721.13086 0.002635
19722.80078 0.002647
19724.47070 0.002659
19726.14062 0.002642
19727.81055 0.002612
19729.49023 0.002581
19731.16016 0.002566
19732.83008 0.002559
19734.50977 0.002552
19736.17969 0.002518
19737.84961 0.002474
19739.52930 0.002429
19741.19922 0.002405
19742.86914 0.002388
19744.55078 0.002372
19746.22070 0.002377
19747.90039 0.002391
19749.57031 0.002404
19751.25000 0.002391
19752.91992 0.002368
19754.59961 0.002345
19756.26953 0.002298
19757.94922 0.002242
19759.61914 0.002187
19761.30078 0.002221
19762.97070 0.002281
19764.65039 0.00234
19766.33008 0.002287
19768.00000 0.002205
19769.67969 0.002122
19771.35938 0.002132
19773.02930 0.002164
19774.71094 0.002196
19776.38086 0.002185
19778.06055 0.002165
19779.74023 0.002145
19781.41992 0.002116
19783.08984 0.002085
19784.76953 0.002054
19786.44922 0.002041
19788.13086 0.002031
19789.80078 0.00202
19791.48047 0.001986
19793.16016 0.001949
19794.83984 0.001911
19796.51953 0.001962
19798.19922 0.002023
19799.88086 0.002084
19801.55078 0.002036
19803.23047 0.001979
19804.91016 0.001922
19806.58984 0.001865
19808.26953 0.001809
19809.94922 0.001753
19811.63086 0.001748
19813.31055 0.001745
19814.99023 0.001741
19816.66992 0.001751
19818.34961 0.001761
19820.02930 0.001771
19821.71094 0.001754
19823.39062 0.001736
19825.08008 0.001721
19826.75977 0.00173
19828.43945 0.00174
19830.11914 0.001752
19831.80078 0.001802
19833.48047 0.001853
19835.16016 0.00189
19836.84961 0.001812
19838.52930 0.001734
19840.21094 0.001667
19841.89062 0.001687
19843.58008 0.001707
19845.25977 0.001715
19846.93945 0.00166
19848.61914 0.001606
19850.31055 0.001562
19851.99023 0.001567
19853.66992 0.001571
19855.35938 0.00158
19857.03906 0.001609
19858.72070 0.001638
19860.41016 0.001647
19862.08984 0.001596
19863.77930 0.001544
19865.46094 0.001512
19867.15039 0.001531
19868.83008 0.00155
19870.51953 0.001552
19872.19922 0.001515
19873.89062 0.001478
19875.57031 0.001432
19877.25977 0.001367
19878.93945 0.001302
19880.63086 0.001288
19882.31055 0.001361
19884.00000 0.001433
19885.68945 0.001447
19887.36914 0.001376
19889.06055 0.001304
19890.74023 0.001252
19892.42969 0.001225
19894.11914 0.001197
19895.80078 0.001203
19897.49023 0.001245
19899.17969 0.001287
19900.86914 0.001306
19902.55078 0.001303
19904.24023 0.0013
19905.92969 0.001294
19907.61914 0.001286
19909.31055 0.001277
19910.99023 0.001293
19912.67969 0.001325
19914.36914 0.001357
19916.06055 0.001331
19917.75000 0.001271
19919.43945 0.001211
19921.13086 0.001198
19922.82031 0.001208
19924.50977 0.001219
19926.19922 0.001186
19927.88086 0.001136
19929.57031 0.001086
19931.26953 0.001092
19932.96094 0.001118
19934.64062 0.001144
19936.33984 0.00114
19938.02930 0.001128
19939.72070 0.001116
19941.41016 0.001088
19943.09961 0.001056
19944.78906 0.001025
19946.48047 0.00101
19948.16992 0.000998
19949.85938 0.000986
19951.56055 0.000976
19953.25000 0.000967
19954.93945 0.000958
19956.63086 0.001023
19958.32031 0.001092
19960.01953 0.001159
19961.71094 0.001088
19963.40039 0.001018
19965.08984 0.000951
19966.78906 0.000948
19968.48047 0.000945
19970.16992 0.000941
19971.86914 0.000926
19973.56055 0.00091
19975.25000 0.000901
19976.94922 0.000927
19978.64062 0.000954
19980.33984 0.000977
19982.02930 0.000991
19983.72070 0.001004
19985.41992 0.000999
19987.11914 0.000938
19988.81055 0.000877
19990.50000 0.000836
19992.19922 0.000843
19993.89062 0.00085
19995.58984 0.000854
19997.28906 0.000852
19998.98047 0.00085
20000.67969 0.000851
20002.36914 0.000857
20004.07031 0.000862
20005.76953 0.000866
20007.46094 0.000868
20009.16016 0.00087
20010.85938 0.00087
20012.55078 0.00087
20014.25000 0.00087
20015.94922 0.000851
20017.64062 0.000816
20019.33984 0.000781
20021.03906 0.000759
20022.74023 0.000744
20024.43945 0.000729
20026.13086 0.000739
20027.83008 0.00076
20029.52930 0.000781
20031.23047 0.000754
20032.92969 0.00071
20034.63086 0.000665
20036.32031 0.00066
20038.01953 0.000665
20039.72070 0.000671
20041.41992 0.000653
20043.11914 0.000629
20044.82031 0.000606
20046.51953 0.000615
20048.22070 0.000628
20049.91992 0.00064
20051.61914 0.00065
20053.32031 0.00066
20055.01953 0.000669
20056.72070 0.000662
20058.41992 0.000656
20060.11914 0.000648
20061.82031 0.000634
20063.52930 0.00062
20065.23047 0.000609
20066.92969 0.000622
20068.63086 0.000635
20070.33008 0.000638
20072.02930 0.000601
20073.74023 0.000564
20075.43945 0.000539
20077.14062 0.000549
20078.83984 0.000559
20080.53906 0.000575
20082.25000 0.000607
20083.94922 0.000638
20085.65039 0.000639
20087.35938 0.000589
20089.06055 0.000539
20090.75977 0.000509
20092.47070 0.000502
20094.16992 0.000496
20095.86914 0.000483
20097.58008 0.000465
20099.27930 0.000448
20100.99023 0.00044
20102.68945 0.000441
20104.40039 0.000441
20106.09961 0.00047
20107.81055 0.000515
20109.50977 0.00056
20111.22070 0.000555
20112.91992 0.00053
20114.63086 0.000505
20116.33008 0.000507
20118.03906 0.000517
20119.75000 0.000527
20121.44922 0.000499
20123.16016 0.000464
20124.86914 0.00043
20126.57031 0.000439
20128.27930 0.000452
20129.98047 0.000465
20131.68945 0.000434
20133.40039 0.000402
22146.74023 0.0
