# %ECSV 0.9
# ---
# datatype:
# - {name: wavelength, unit: Angstrom, datatype: float32}
# - {name: response, datatype: float32}
# meta: !!omap
# - {band_name: F625W}
# - {group_name: WFC3_UVIS2}
wavelength response
4841.73096 0.0
5379.70117 0.000403
5380.62109 0.00042
5381.54199 0.000437
5382.46191 0.000465
5383.38379 0.000493
5384.30518 0.000521
5385.22607 0.00055
5386.14697 0.000578
5387.06885 0.000606
5387.99023 0.000634
5388.91211 0.000662
5389.83398 0.00069
5390.75586 0.000718
5391.67920 0.000751
5392.60107 0.000801
5393.52393 0.000851
5394.44678 0.0009
5395.37012 0.00095
5396.29297 0.001
5397.21582 0.00105
5398.14014 0.0011
5399.06299 0.00115
5399.98682 0.0012
5400.91113 0.00125
5401.83496 0.001315
5402.75879 0.001406
5403.68408 0.001497
5404.60791 0.001589
5405.53320 0.00168
5406.45801 0.001772
5407.38281 0.001863
5408.30811 0.001955
5409.23291 0.002046
5410.15918 0.002138
5411.08398 0.002229
5412.00977 0.002361
5412.93604 0.002524
5413.86182 0.002688
5414.78906 0.002852
5415.71484 0.003016
5416.64209 0.00318
5417.56787 0.003344
5418.49512 0.003508
5419.42188 0.003672
5420.35010 0.003837
5421.27686 0.004001
5422.20508 0.004262
5423.13184 0.004556
5424.06006 0.004849
5424.98779 0.005143
5425.91602 0.005437
5426.84521 0.00573
5427.77295 0.006024
5428.70215 0.006318
5429.62988 0.006612
5430.56006 0.006906
5431.48877 0.0072
5432.41797 0.007739
5433.34717 0.008283
5434.27686 0.008828
5435.20703 0.009373
5436.13721 0.009918
5437.06689 0.010463
5437.99707 0.011008
5438.92676 0.011552
5439.85791 0.012098
5440.78906 0.012643
5441.72021 0.013288
5442.65088 0.014283
5443.58203 0.015278
5444.51318 0.016272
5445.44482 0.017267
5446.37598 0.018262
5447.30811 0.019257
5448.24023 0.020252
5449.17188 0.021248
5450.10498 0.022244
5451.03711 0.023239
5451.97021 0.024589
5452.90283 0.026313
5453.83594 0.028037
5454.76904 0.02976
5455.70215 0.031483
5456.63623 0.033208
5457.56885 0.034932
5458.50293 0.036656
5459.43701 0.038381
5460.37109 0.040106
5461.30518 0.04183
5462.24023 0.044307
5463.17383 0.047003
5464.10889 0.0497
5465.04395 0.052398
5465.97900 0.055095
5466.91406 0.057794
5467.84912 0.060492
5468.78516 0.063191
5469.72119 0.065891
5470.65576 0.06859
5471.59180 0.071372
5472.52783 0.075132
5473.46484 0.078895
5474.40088 0.082657
5475.33789 0.08642
5476.27490 0.090184
5477.21191 0.093948
5478.14893 0.097712
5479.08594 0.101475
5480.02295 0.105241
5480.96094 0.109006
5481.89893 0.113007
5482.83691 0.117357
5483.77490 0.121706
5484.71289 0.126058
5485.65088 0.130408
5486.58984 0.134761
5487.52881 0.139113
5488.46777 0.143466
5489.40723 0.147819
5490.34619 0.152174
5491.28516 0.156527
5492.22510 0.160533
5493.16504 0.164417
5494.10400 0.168303
5495.04395 0.172189
5495.98486 0.176077
5496.92480 0.179962
5497.86523 0.183849
5498.80615 0.187738
5499.74707 0.191627
5500.68799 0.195516
5501.62891 0.199287
5502.56982 0.202094
5503.51221 0.2049
5504.45410 0.207707
5505.39502 0.210512
5506.33691 0.213319
5507.27881 0.216128
5508.22217 0.218936
5509.16406 0.221744
5510.10596 0.224552
5511.04883 0.227361
5511.99219 0.229628
5512.93506 0.231329
5513.87793 0.233031
5514.82178 0.234732
5515.76611 0.236435
5516.70898 0.238136
5517.65283 0.239838
5518.59717 0.241541
5519.54199 0.243244
5520.48584 0.244947
5521.43018 0.24665
5522.37500 0.247635
5523.31982 0.248532
5524.26514 0.249429
5525.20996 0.250327
5526.15479 0.251224
5527.10107 0.252121
5528.04590 0.253019
5528.99219 0.253917
5529.93799 0.254815
5530.88379 0.255713
5531.83105 0.256462
5532.77686 0.256881
5533.72412 0.2573
5534.66992 0.25772
5535.61816 0.25814
5536.56396 0.258559
5537.51221 0.258979
5538.45898 0.259398
5539.40723 0.259818
5540.35400 0.260238
5541.30322 0.260657
5542.25000 0.260992
5543.19922 0.261299
5544.14697 0.261606
5545.09619 0.261913
5546.04395 0.26222
5546.99414 0.262527
5547.94189 0.262833
5548.89209 0.26314
5549.84082 0.263448
5550.79102 0.263755
5551.74023 0.26407
5552.68994 0.264414
5553.64014 0.264759
5554.58984 0.265103
5555.54102 0.265448
5556.49121 0.265793
5557.44189 0.266137
5558.39307 0.266482
5559.34424 0.266827
5560.29492 0.267172
5561.24707 0.267517
5562.19824 0.267833
5563.14893 0.268136
5564.10205 0.26844
5565.05420 0.268743
5566.00586 0.269047
5566.95801 0.26935
5567.91113 0.269654
5568.86279 0.269958
5569.81592 0.270261
5570.76904 0.270547
5571.72217 0.27083
5572.67480 0.271121
5573.62891 0.271411
5574.58301 0.271702
5575.53613 0.271992
5576.49023 0.272283
5577.44385 0.272573
5578.39795 0.272863
5579.35303 0.273154
5580.30811 0.273451
5581.26221 0.273763
5582.21680 0.274014
5583.17188 0.274238
5584.12695 0.274462
5585.08301 0.274687
5586.03906 0.274911
5586.99414 0.275135
5587.95020 0.27536
5588.90576 0.275584
5589.86182 0.275808
5590.81885 0.276033
5591.77490 0.276245
5592.73193 0.276416
5593.68896 0.276587
5594.64600 0.276758
5595.60303 0.27693
5596.56104 0.277101
5597.51807 0.277272
5598.47607 0.277444
5599.43408 0.277615
5600.39209 0.277786
5601.35010 0.277958
5602.30811 0.278031
5603.26709 0.278078
5604.22607 0.278124
5605.18506 0.278171
5606.14404 0.278218
5607.10303 0.278265
5608.06201 0.278312
5609.02100 0.278358
5609.98096 0.278405
5610.94092 0.278452
5611.90088 0.278446
5612.86084 0.278344
5613.82080 0.278242
5614.78223 0.278141
5615.74316 0.278039
5616.70410 0.277937
5617.66504 0.277835
5618.62500 0.277734
5619.58691 0.277632
5620.54785 0.27753
5621.50977 0.277428
5622.47217 0.27728
5623.43408 0.277129
5624.39600 0.276978
5625.35791 0.276827
5626.32080 0.276676
5627.28320 0.276525
5628.24609 0.276374
5629.20898 0.276223
5630.17188 0.27607
5631.13477 0.275912
5632.09912 0.275693
5633.06201 0.275424
5634.02588 0.275156
5634.99023 0.274887
5635.95508 0.274619
5636.91797 0.27435
5637.88281 0.274082
5638.84814 0.273813
5639.81299 0.273545
5640.77686 0.273276
5641.74316 0.272997
5642.70801 0.272669
5643.67285 0.272342
5644.63916 0.272015
5645.60400 0.271687
5646.57080 0.271359
5647.53711 0.271032
5648.50293 0.270704
5649.46924 0.270377
5650.43604 0.270049
5651.40283 0.269722
5652.37012 0.269341
5653.33691 0.268948
5654.30420 0.268556
5655.27100 0.268164
5656.23877 0.267772
5657.20703 0.26738
5658.17480 0.266988
5659.14307 0.266596
5660.11084 0.266204
5661.08008 0.265811
5662.04785 0.265475
5663.01709 0.265196
5663.98584 0.264917
5664.95508 0.264638
5665.92383 0.264359
5666.89404 0.26408
5667.86279 0.2638
5668.83301 0.263521
5669.80322 0.263242
5670.77197 0.262963
5671.74316 0.262699
5672.71289 0.262508
5673.68408 0.262318
5674.65479 0.262128
5675.62500 0.261937
5676.59717 0.261746
5677.56787 0.261556
5678.53906 0.261365
5679.51123 0.261175
5680.48193 0.260984
5681.45508 0.260794
5682.42578 0.260646
5683.39893 0.260504
5684.37109 0.260363
5685.34424 0.260221
5686.31592 0.26008
5687.29004 0.259938
5688.26221 0.259797
5689.23584 0.259655
5690.20898 0.259513
5691.18311 0.259372
5692.15576 0.259252
5693.12988 0.259147
5694.10400 0.259041
5695.07910 0.258936
5696.05322 0.258831
5697.02686 0.258726
5698.00195 0.258621
5698.97705 0.258516
5699.95215 0.25841
5700.92676 0.258306
5701.90283 0.258246
5702.87793 0.258278
5703.85400 0.25831
5704.83008 0.258342
5705.80615 0.258375
5706.78223 0.258407
5707.75879 0.258439
5708.73486 0.258472
5709.71191 0.258504
5710.68896 0.258536
5711.66602 0.258582
5712.64307 0.258774
5713.62109 0.258967
5714.59814 0.259159
5715.57617 0.259351
5716.55420 0.259544
5717.53223 0.259736
5718.50977 0.259929
5719.48779 0.260121
5720.46680 0.260303
5721.44580 0.260474
5722.42480 0.260738
5723.40381 0.261018
5724.38281 0.261298
5725.36182 0.261577
5726.34180 0.261857
5727.32178 0.262137
5728.30176 0.262416
5729.28223 0.262696
5730.26221 0.262981
5731.24316 0.263282
5732.22314 0.263576
5733.20410 0.263866
5734.18506 0.264156
5735.16602 0.264446
5736.14697 0.264736
5737.12793 0.265025
5738.10986 0.265315
5739.09180 0.265605
5740.07422 0.265895
5741.05615 0.266185
5742.03809 0.266474
5743.02100 0.266762
5744.00293 0.267051
5744.98584 0.267339
5745.96924 0.267627
5746.95215 0.267916
5747.93506 0.268204
5748.91797 0.268492
5749.90186 0.268781
5750.88623 0.269069
5751.87012 0.269381
5752.85400 0.269754
5753.83789 0.270127
5754.82324 0.2705
5755.80811 0.270873
5756.79199 0.271245
5757.77686 0.271618
5758.76221 0.271991
5759.74805 0.272364
5760.73291 0.272737
5761.71924 0.273102
5762.70508 0.27341
5763.68994 0.273717
5764.67676 0.274025
5765.66309 0.274333
5766.64893 0.27464
5767.63623 0.274948
5768.62305 0.275256
5769.60986 0.275563
5770.59717 0.275871
5771.58398 0.276179
5772.57178 0.276371
5773.56006 0.276562
5774.54688 0.276752
5775.53516 0.276942
5776.52295 0.277133
5777.51221 0.277323
5778.50000 0.277514
5779.48877 0.277704
5780.47803 0.277895
5781.46680 0.278085
5782.45605 0.278175
5783.44482 0.278248
5784.43506 0.278321
5785.42383 0.278395
5786.41504 0.278468
5787.40381 0.278541
5788.39502 0.278614
5789.38477 0.278688
5790.37500 0.278761
5791.36621 0.278834
5792.35693 0.278848
5793.34814 0.278842
5794.33887 0.278836
5795.33105 0.27883
5796.32178 0.278824
5797.31396 0.278818
5798.30615 0.278811
5799.29785 0.278806
5800.29004 0.2788
5801.28320 0.278794
5802.27490 0.278686
5803.26807 0.278529
5804.26123 0.278373
5805.25391 0.278216
5806.24707 0.278059
5807.24023 0.277902
5808.23389 0.277745
5809.22803 0.277588
5810.22217 0.277431
5811.21582 0.277274
5812.20996 0.277029
5813.20508 0.276726
5814.19922 0.276423
5815.19385 0.27612
5816.18896 0.275817
5817.18408 0.275513
5818.17920 0.27521
5819.17480 0.274907
5820.16992 0.2746
5821.16602 0.274274
5822.16211 0.273915
5823.15820 0.273529
5824.15479 0.273143
5825.15088 0.272757
5826.14697 0.272372
5827.14502 0.271986
5828.14209 0.2716
5829.13916 0.271215
5830.13623 0.270833
5831.13281 0.270474
5832.13086 0.270132
5833.12891 0.269806
5834.12695 0.269479
5835.12500 0.269153
5836.12402 0.268827
5837.12207 0.2685
5838.12109 0.268174
5839.12012 0.267847
5840.11914 0.26752
5841.11816 0.267193
5842.11719 0.266873
5843.11719 0.266557
5844.11719 0.266242
5845.11719 0.265927
5846.11719 0.265611
5847.11719 0.265296
5848.11719 0.264981
5849.11816 0.264665
5850.11914 0.26435
5851.12012 0.264034
5852.12109 0.263703
5853.12207 0.263355
5854.12305 0.263007
5855.12500 0.262659
5856.12598 0.262311
5857.12793 0.261963
5858.13086 0.261615
5859.13281 0.261267
5860.13623 0.260918
5861.13818 0.26057
5862.14111 0.26024
5863.14404 0.259925
5864.14697 0.259611
5865.14990 0.259296
5866.15381 0.258981
5867.15820 0.258667
5868.16211 0.258352
5869.16602 0.258037
5870.16895 0.257723
5871.17383 0.257408
5872.17920 0.257176
5873.18311 0.257011
5874.18799 0.256846
5875.19287 0.256682
5876.19824 0.256517
5877.20410 0.256353
5878.20898 0.256188
5879.21484 0.256023
5880.22119 0.255859
5881.22705 0.255694
5882.23291 0.255646
5883.24023 0.255675
5884.24609 0.255705
5885.25293 0.255735
5886.25977 0.255765
5887.26709 0.255794
5888.27393 0.255824
5889.28223 0.255854
5890.29004 0.255883
5891.29688 0.255913
5892.30518 0.255991
5893.31299 0.256094
5894.32178 0.256197
5895.33008 0.2563
5896.33887 0.256402
5897.34814 0.256505
5898.35596 0.256608
5899.36621 0.256711
5900.37500 0.256805
5901.38477 0.256886
5902.39502 0.256968
5903.40381 0.257049
5904.41406 0.257131
5905.42383 0.257212
5906.43506 0.257294
5907.44482 0.257376
5908.45605 0.257457
5909.46680 0.257539
5910.47803 0.257631
5911.48877 0.257734
5912.50098 0.257901
5913.51221 0.258077
5914.52393 0.258254
5915.53613 0.258431
5916.54785 0.258608
5917.56104 0.258785
5918.57324 0.258962
5919.58496 0.259138
5920.59814 0.259315
5921.61084 0.259492
5922.62500 0.259803
5923.63818 0.260118
5924.65088 0.260433
5925.66504 0.260748
5926.67920 0.261063
5927.69287 0.261378
5928.70703 0.261693
5929.72217 0.262008
5930.73584 0.262323
5931.75000 0.262647
5932.76611 0.263043
5933.78076 0.263439
5934.79590 0.263836
5935.81201 0.264232
5936.82715 0.264628
5937.84277 0.265024
5938.85791 0.265421
5939.87500 0.265817
5940.89111 0.266214
5941.90723 0.266596
5942.92383 0.266938
5943.94092 0.26728
5944.95801 0.267622
5945.97510 0.267964
5946.99219 0.268305
5948.00977 0.268647
5949.02686 0.268989
5950.04492 0.269331
5951.06299 0.269673
5952.08203 0.269974
5953.10010 0.270218
5954.11914 0.270462
5955.13721 0.270707
5956.15576 0.270951
5957.17480 0.271195
5958.19385 0.271439
5959.21387 0.271684
5960.23291 0.271928
5961.25293 0.272173
5962.27295 0.272393
5963.29297 0.272598
5964.31299 0.272803
5965.33398 0.273008
5966.35400 0.273213
5967.37500 0.273418
5968.39600 0.273623
5969.41699 0.273828
5970.43896 0.274023
5971.45996 0.274204
5972.48193 0.274334
5973.50391 0.274451
5974.52588 0.274569
5975.54785 0.274687
5976.57080 0.274804
5977.59277 0.274921
5978.61621 0.275039
5979.63916 0.275156
5980.66211 0.275289
5981.68506 0.275428
5982.70801 0.275458
5983.73193 0.275489
5984.75586 0.27552
5985.77979 0.275551
5986.80420 0.275581
5987.82812 0.275612
5988.85303 0.275643
5989.87695 0.275674
5990.90186 0.275705
5991.92676 0.275685
5992.95312 0.275523
5993.97803 0.275361
5995.00293 0.275199
5996.02881 0.275036
5997.05518 0.274874
5998.08105 0.274712
5999.10693 0.27455
6000.13379 0.274391
6001.16016 0.274257
6002.18701 0.274085
6003.21387 0.273877
6004.24121 0.273669
6005.26904 0.273462
6006.29590 0.273254
6007.32422 0.273046
6008.35205 0.272838
6009.37891 0.27263
6010.40820 0.272422
6011.43604 0.272214
6012.46387 0.27199
6013.49316 0.271761
6014.52197 0.271533
6015.55078 0.271304
6016.58008 0.271075
6017.60986 0.270846
6018.63916 0.270618
6019.66895 0.270389
6020.69922 0.27016
6021.72900 0.269929
6022.75879 0.26968
6023.79004 0.269431
6024.81982 0.269181
6025.85107 0.268932
6026.88184 0.268682
6027.91406 0.268432
6028.94482 0.268182
6029.97607 0.267933
6031.00781 0.267657
6032.04004 0.267337
6033.07178 0.26694
6034.10400 0.266544
6035.13721 0.266147
6036.16895 0.26575
6037.20215 0.265353
6038.23486 0.264956
6039.26807 0.264559
6040.30078 0.264169
6041.33398 0.263795
6042.36816 0.263391
6043.40186 0.262973
6044.43604 0.262555
6045.47021 0.262136
6046.50391 0.261718
6047.53906 0.261299
6048.57422 0.26088
6049.60889 0.260461
6050.64404 0.260043
6051.67920 0.259624
6052.71387 0.25934
6053.75000 0.259057
6054.78613 0.258773
6055.82178 0.25849
6056.85791 0.258206
6057.89404 0.257922
6058.93115 0.257638
6059.96680 0.257354
6061.00391 0.25707
6062.04102 0.256823
6063.07812 0.256646
6064.11621 0.256468
6065.15283 0.25629
6066.19092 0.256112
6067.22900 0.255934
6068.26709 0.255756
6069.30518 0.255578
6070.34277 0.2554
6071.38184 0.255222
6072.42090 0.255103
6073.45996 0.255006
6074.49902 0.25491
6075.53809 0.254813
6076.57812 0.254717
6077.61816 0.25462
6078.65723 0.254523
6079.69678 0.254427
6080.73682 0.25433
6081.77783 0.254232
6082.81787 0.254117
6083.85889 0.254001
6084.89990 0.253886
6085.94092 0.25377
6086.98193 0.253655
6088.02393 0.253539
6089.06494 0.253424
6090.10693 0.253306
6091.14893 0.253168
6092.19092 0.253046
6093.23389 0.252942
6094.27588 0.252838
6095.31885 0.252733
6096.36182 0.252629
6097.40479 0.252525
6098.44824 0.25242
6099.49219 0.252316
6100.53516 0.252223
6101.57910 0.252141
6102.62305 0.252178
6103.66699 0.252228
6104.71094 0.252279
6105.75586 0.25233
6106.79980 0.252381
6107.84521 0.252431
6108.89014 0.252482
6109.93604 0.252533
6110.98096 0.252584
6112.02588 0.252687
6113.07178 0.252903
6114.11816 0.253118
6115.16406 0.253334
6116.20996 0.253549
6117.25684 0.253765
6118.30420 0.253981
6119.35107 0.254196
6120.39697 0.254412
6121.44385 0.254628
6122.49219 0.254863
6123.54004 0.255104
6124.58691 0.255345
6125.63477 0.255586
6126.68311 0.255827
6127.73096 0.256068
6128.77979 0.256309
6129.82812 0.25655
6130.87695 0.256791
6131.92578 0.257015
6132.97510 0.257177
6134.02393 0.257339
6135.07422 0.257501
6136.12402 0.257663
6137.17285 0.257825
6138.22412 0.257987
6139.27393 0.258149
6140.32422 0.258312
6141.37500 0.258474
6142.42578 0.258631
6143.47705 0.258786
6144.52783 0.258941
6145.57910 0.259096
6146.62988 0.25925
6147.68213 0.259405
6148.73389 0.25956
6149.78613 0.259715
6150.83789 0.259852
6151.89111 0.259989
6152.94287 0.260153
6153.99609 0.260316
6155.04883 0.260479
6156.10205 0.260643
6157.15479 0.260806
6158.20801 0.26097
6159.26221 0.261133
6160.31592 0.261304
6161.37012 0.261491
6162.42383 0.261728
6163.47900 0.261989
6164.53320 0.262249
6165.58789 0.26251
6166.64307 0.262771
6167.69824 0.263031
6168.75293 0.263292
6169.80908 0.263553
6170.86377 0.263815
6171.91992 0.264054
6172.97607 0.26421
6174.03223 0.264365
6175.08789 0.264521
6176.14502 0.264677
6177.20215 0.264832
6178.25781 0.264988
6179.31494 0.265144
6180.37305 0.265299
6181.43018 0.265455
6182.48779 0.265528
6183.54492 0.265571
6184.60400 0.265614
6185.66211 0.265656
6186.72021 0.265699
6187.77783 0.265742
6188.83691 0.265785
6189.89600 0.265828
6190.95508 0.265871
6192.01416 0.265891
6193.07422 0.265854
6194.13281 0.265818
6195.19287 0.265782
6196.25293 0.265745
6197.31299 0.265709
6198.37402 0.265672
6199.43408 0.265636
6200.49512 0.265588
6201.55615 0.265527
6202.61719 0.265484
6203.67822 0.265444
6204.73877 0.265404
6205.80078 0.265364
6206.86279 0.265324
6207.92480 0.265284
6208.98682 0.265244
6210.04883 0.265205
6211.11182 0.265189
6212.17383 0.265186
6213.23682 0.265199
6214.29980 0.265213
6215.36377 0.265227
6216.42676 0.26524
6217.49121 0.265254
6218.55420 0.265268
6219.61816 0.265282
6220.68311 0.265295
6221.74707 0.265307
6222.81201 0.265223
6223.87598 0.265139
6224.94092 0.265055
6226.00586 0.264971
6227.07080 0.264887
6228.13721 0.264802
6229.20215 0.264718
6230.26807 0.264635
6231.33398 0.264552
6232.39990 0.264406
6233.46582 0.264221
6234.53320 0.264037
6235.60010 0.263853
6236.66699 0.263669
6237.73291 0.263484
6238.80078 0.2633
6239.86816 0.263116
6240.93604 0.26291
6242.00293 0.262703
6243.07178 0.2625
6244.14014 0.262298
6245.20801 0.262096
6246.27588 0.261893
6247.34521 0.261691
6248.41406 0.261488
6249.48291 0.261286
6250.55176 0.261095
6251.62207 0.260916
6252.69092 0.26084
6253.76123 0.260775
6254.83203 0.26071
6255.90088 0.260645
6256.97217 0.26058
6258.04199 0.260515
6259.11279 0.26045
6260.18408 0.260385
6261.25488 0.26032
6262.32617 0.260295
6263.39795 0.260303
6264.46924 0.260311
6265.54102 0.260319
6266.61279 0.260326
6267.68604 0.260334
6268.75781 0.260342
6269.83105 0.26035
6270.90283 0.260358
6271.97607 0.26035
6273.04883 0.260289
6274.12305 0.260227
6275.19580 0.260166
6276.27002 0.260105
6277.34277 0.260043
6278.41699 0.259982
6279.49219 0.25992
6280.56592 0.259859
6281.64111 0.259797
6282.71484 0.259706
6283.79004 0.259611
6284.86523 0.259516
6285.93994 0.259422
6287.01611 0.259327
6288.09180 0.259233
6289.16699 0.259138
6290.24414 0.259038
6291.31982 0.258919
6292.39600 0.258808
6293.47314 0.258703
6294.54980 0.258597
6295.62598 0.258491
6296.70410 0.258386
6297.78076 0.25828
6298.85889 0.258174
6299.93701 0.258068
6301.01416 0.257985
6302.09180 0.257949
6303.16992 0.25801
6304.24902 0.258072
6305.32812 0.258133
6306.40576 0.258194
6307.48486 0.258255
6308.56396 0.258316
6309.64404 0.258377
6310.72412 0.258438
6311.80322 0.258503
6312.88281 0.25864
6313.96289 0.258777
6315.04297 0.258914
6316.12402 0.259051
6317.20508 0.259188
6318.28613 0.259325
6319.36719 0.259462
6320.44824 0.259599
6321.52881 0.259736
6322.61084 0.259827
6323.69189 0.259908
6324.77393 0.259988
6325.85596 0.260068
6326.93896 0.260148
6328.02100 0.260228
6329.10400 0.260308
6330.18701 0.260385
6331.27002 0.260441
6332.35303 0.260448
6333.43701 0.260417
6334.52100 0.260386
6335.60400 0.260355
6336.68799 0.260324
6337.77197 0.260293
6338.85596 0.260262
6339.94092 0.260231
6341.02588 0.260222
6342.11084 0.260207
6343.19580 0.260175
6344.28076 0.260143
6345.36719 0.260111
6346.45215 0.26008
6347.53809 0.260048
6348.62402 0.260016
6349.70996 0.259984
6350.79688 0.259952
6351.88281 0.259929
6352.97021 0.259979
6354.05713 0.26003
6355.14502 0.26008
6356.23096 0.26013
6357.31885 0.26018
6358.40723 0.260231
6359.49512 0.260281
6360.58301 0.260331
6361.67090 0.260381
6362.75879 0.260455
6363.84814 0.26053
6364.93701 0.260606
6366.02588 0.260681
6367.11523 0.260757
6368.20508 0.260832
6369.29395 0.260908
6370.38379 0.260974
6371.47412 0.261026
6372.56396 0.261068
6373.65381 0.261106
6374.74512 0.261145
6375.83496 0.261184
6376.92578 0.261223
6378.01807 0.261261
6379.10791 0.2613
6380.20020 0.261343
6381.29199 0.261406
6382.38281 0.261391
6383.47607 0.261316
6384.56689 0.261241
6385.66016 0.261166
6386.75195 0.261091
6387.84521 0.261016
6388.93799 0.260941
6390.03076 0.260865
6391.12500 0.26079
6392.21777 0.260684
6393.31201 0.260535
6394.40576 0.260386
6395.50000 0.260237
6396.59424 0.260088
6397.68799 0.259939
6398.78320 0.25979
6399.87793 0.25964
6400.97314 0.259491
6402.06787 0.259365
6403.16309 0.2593
6404.25879 0.259236
6405.35400 0.259171
6406.45117 0.259107
6407.54590 0.259042
6408.64307 0.258978
6409.73877 0.258913
6410.83594 0.25883
6411.93311 0.258751
6413.02979 0.258733
6414.12695 0.258716
6415.22510 0.258698
6416.32178 0.258681
6417.41992 0.258663
6418.51807 0.258646
6419.61621 0.258628
6420.71387 0.258626
6421.81299 0.258634
6422.91211 0.258662
6424.01123 0.25869
6425.10986 0.258718
6426.20898 0.258746
6427.30908 0.258775
6428.40820 0.258803
6429.50781 0.258831
6430.60791 0.258856
6431.70801 0.258879
6432.80908 0.258824
6433.91016 0.258764
6435.00977 0.258704
6436.11084 0.258644
6437.21191 0.258584
6438.31396 0.258524
6439.41602 0.258464
6440.51709 0.258404
6441.61914 0.258343
6442.72119 0.258249
6443.82422 0.25815
6444.92578 0.25805
6446.02881 0.25795
6447.13184 0.25785
6448.23486 0.25775
6449.33789 0.25765
6450.44092 0.257541
6451.54492 0.257416
6452.64893 0.257322
6453.75293 0.257237
6454.85693 0.257152
6455.96094 0.257066
6457.06592 0.256981
6458.17090 0.256895
6459.27588 0.25681
6460.38086 0.256733
6461.48584 0.256671
6462.59180 0.256735
6463.69678 0.256844
6464.80322 0.256954
6465.91016 0.257064
6467.01611 0.257173
6468.12207 0.257283
6469.22900 0.257393
6470.33594 0.257502
6471.44287 0.257612
6472.54980 0.257784
6473.65723 0.257985
6474.76514 0.258187
6475.87305 0.258388
6476.98096 0.25859
6478.08887 0.258791
6479.19678 0.258993
6480.30615 0.259194
6481.41504 0.259396
6482.52295 0.259571
6483.63281 0.259734
6484.74219 0.259896
6485.85205 0.260059
6486.96094 0.260221
6488.07080 0.260384
6489.18115 0.260546
6490.29199 0.260702
6491.40186 0.26084
6492.51318 0.260945
6493.62402 0.261033
6494.73389 0.261121
6495.84619 0.261208
6496.95703 0.261296
6498.06885 0.261384
6499.18018 0.261471
6500.29199 0.261551
6501.40479 0.261608
6502.51709 0.261656
6503.62891 0.261699
6504.74219 0.261742
6505.85498 0.261785
6506.96777 0.261828
6508.08203 0.261871
6509.19482 0.261914
6510.30908 0.261957
6511.42188 0.262
6512.53711 0.262129
6513.65088 0.262301
6514.76514 0.262474
6515.87988 0.262646
6516.99512 0.262819
6518.10986 0.262991
6519.22510 0.263163
6520.33984 0.263328
6521.45605 0.263474
6522.57178 0.263664
6523.68799 0.263873
6524.80420 0.264083
6525.91992 0.264292
6527.03711 0.264501
6528.15381 0.264709
6529.27100 0.264918
6530.38818 0.265135
6531.50488 0.265369
6532.62305 0.265604
6533.74023 0.265839
6534.85791 0.266074
6535.97607 0.266309
6537.09424 0.266543
6538.21289 0.266778
6539.33203 0.267012
6540.45020 0.267247
6541.56885 0.267481
6542.68799 0.267637
6543.80811 0.267773
6544.92822 0.267908
6546.04688 0.268042
6547.16699 0.268177
6548.28809 0.268312
6549.40820 0.268447
6550.52881 0.268582
6551.64893 0.268716
6552.77100 0.268783
6553.89209 0.268838
6555.01318 0.268893
6556.13379 0.268948
6557.25586 0.269002
6558.37793 0.269057
6559.50000 0.269112
6560.62305 0.269153
6561.74512 0.269181
6562.86816 0.269187
6563.99023 0.26919
6565.11279 0.269194
6566.23682 0.269198
6567.35986 0.269202
6568.48389 0.269205
6569.60693 0.269209
6570.73096 0.269229
6571.85596 0.269259
6572.97998 0.269289
6574.10498 0.269319
6575.22900 0.26935
6576.35400 0.26938
6577.47998 0.26941
6578.60498 0.26944
6579.73096 0.269471
6580.85596 0.269501
6581.98193 0.269528
6583.10889 0.269539
6584.23486 0.269551
6585.36084 0.269562
6586.48779 0.269574
6587.61523 0.269585
6588.74219 0.269597
6589.87012 0.269608
6590.99707 0.269597
6592.12500 0.269546
6593.25195 0.269398
6594.38086 0.269251
6595.50879 0.269103
6596.63721 0.268955
6597.76611 0.268808
6598.89502 0.26866
6600.02393 0.268514
6601.15283 0.268392
6602.28320 0.268221
6603.41211 0.267979
6604.54199 0.267737
6605.67188 0.267495
6606.80176 0.267253
6607.93311 0.267012
6609.06299 0.26677
6610.19385 0.266528
6611.32520 0.266286
6612.45605 0.266031
6613.58691 0.265766
6614.71924 0.2655
6615.85107 0.265235
6616.98193 0.26497
6618.11523 0.264705
6619.24707 0.264439
6620.37891 0.264174
6621.51221 0.263909
6622.64502 0.26365
6623.77783 0.263393
6624.91211 0.263136
6626.04492 0.26288
6627.17920 0.262623
6628.31299 0.262367
6629.44678 0.26211
6630.58105 0.261835
6631.71484 0.261541
6632.85010 0.26129
6633.98486 0.261045
6635.12012 0.260799
6636.25488 0.260553
6637.39111 0.260308
6638.52588 0.260062
6639.66211 0.259817
6640.79785 0.25959
6641.93408 0.259362
6643.07080 0.25906
6644.20703 0.258758
6645.34424 0.258456
6646.48096 0.258154
6647.61816 0.257852
6648.75488 0.25755
6649.89307 0.257248
6651.03076 0.256947
6652.16895 0.256627
6653.30713 0.256266
6654.44482 0.255904
6655.58398 0.255542
6656.72314 0.255181
6657.86084 0.25482
6659.00000 0.254459
6660.14014 0.254094
6661.27881 0.253708
6662.41895 0.253315
6663.55908 0.252914
6664.69922 0.252514
6665.83887 0.252113
6666.97998 0.251713
6668.12109 0.251313
6669.26221 0.250913
6670.40283 0.250522
6671.54395 0.250148
6672.68604 0.249835
6673.82715 0.249545
6674.96924 0.249255
6676.11084 0.248965
6677.25293 0.248675
6678.39600 0.248386
6679.53809 0.248096
6680.68115 0.247806
6681.82422 0.247516
6682.96680 0.247393
6684.11084 0.247272
6685.25391 0.247151
6686.39795 0.247031
6687.54199 0.24691
6688.68701 0.24679
6689.83105 0.246669
6690.97607 0.246528
6692.12012 0.246397
6693.26514 0.246313
6694.41016 0.246228
6695.55615 0.246144
6696.70117 0.246059
6697.84717 0.245975
6698.99316 0.245891
6700.13916 0.245809
6701.28613 0.245749
6702.43213 0.245686
6703.57910 0.245621
6704.72607 0.245556
6705.87305 0.24549
6707.02100 0.245425
6708.16797 0.24536
6709.31494 0.245294
6710.46289 0.245229
6711.61182 0.245164
6712.75977 0.245083
6713.90918 0.244997
6715.05713 0.244911
6716.20605 0.244826
6717.35498 0.24474
6718.50391 0.244655
6719.65381 0.244569
6720.80420 0.244467
6721.95410 0.244359
6723.10400 0.244283
6724.25391 0.244206
6725.40381 0.244129
6726.55518 0.244052
6727.70605 0.243976
6728.85693 0.243899
6730.00781 0.243822
6731.16016 0.24377
6732.31201 0.243755
6733.46289 0.243798
6734.61523 0.243842
6735.76807 0.243886
6736.91992 0.243929
6738.07324 0.243972
6739.22607 0.244016
6740.37793 0.244059
6741.53223 0.244102
6742.68604 0.244255
6743.83887 0.244452
6744.99316 0.244648
6746.14697 0.244844
6747.30078 0.24504
6748.45605 0.245236
6749.60986 0.245432
6750.76514 0.245612
6751.91992 0.245783
6753.07520 0.245971
6754.22998 0.246158
6755.38623 0.246345
6756.54199 0.246532
6757.69824 0.24672
6758.85400 0.246906
6760.01123 0.247093
6761.16699 0.247304
6762.32422 0.247497
6763.48096 0.247663
6764.63818 0.247829
6765.79492 0.247995
6766.95312 0.24816
6768.11084 0.248326
6769.26904 0.248491
6770.42676 0.248657
6771.58496 0.248822
6772.74414 0.248923
6773.90283 0.249003
6775.06201 0.249083
6776.22119 0.249162
6777.37988 0.249242
6778.54004 0.249322
6779.70020 0.249402
6780.85986 0.249463
6782.02002 0.249508
6783.18018 0.249492
6784.34082 0.249476
6785.50098 0.249459
6786.66309 0.249443
6787.82422 0.249427
6788.98486 0.249411
6790.14600 0.249397
6791.30908 0.249406
6792.47021 0.249421
6793.63184 0.249441
6794.79492 0.249462
6795.95801 0.249483
6797.12012 0.249503
6798.28320 0.249524
6799.44580 0.249545
6800.60889 0.249565
6801.77295 0.249586
6802.93701 0.24958
6804.10107 0.249571
6805.26514 0.249562
6806.42920 0.249554
6807.59424 0.249545
6808.75879 0.249536
6809.92285 0.249528
6811.08887 0.249495
6812.25391 0.249441
6813.41895 0.249343
6814.58496 0.249246
6815.75098 0.249148
6816.91699 0.249051
6818.08301 0.248953
6819.25000 0.248855
6820.41699 0.248767
6821.58398 0.248694
6822.75098 0.248528
6823.91797 0.24833
6825.08594 0.248131
6826.25391 0.247933
6827.42090 0.247734
6828.58984 0.247536
6829.75781 0.247338
6830.92676 0.247145
6832.09521 0.246931
6833.26416 0.246618
6834.43408 0.246305
6835.60303 0.245992
6836.77197 0.245679
6837.94189 0.245366
6839.11182 0.245053
6840.28223 0.244734
6841.45312 0.244397
6842.62305 0.24405
6843.79395 0.243698
6844.96484 0.243346
6846.13623 0.242994
6847.30713 0.242642
6848.47900 0.24229
6849.64990 0.241938
6850.82178 0.241604
6851.99512 0.241279
6853.16699 0.240979
6854.33887 0.240679
6855.51221 0.24038
6856.68506 0.24008
6857.85791 0.23978
6859.03223 0.239481
6860.20508 0.239177
6861.37891 0.238853
6862.55322 0.238563
6863.72705 0.2383
6864.90088 0.238038
6866.07617 0.237775
6867.25000 0.237512
6868.42480 0.23725
6869.60107 0.236988
6870.77588 0.236741
6871.95215 0.236503
6873.12695 0.236257
6874.30322 0.236012
6875.47900 0.235767
6876.65576 0.235522
6877.83301 0.235277
6879.00879 0.235032
6880.18604 0.234787
6881.36279 0.234542
6882.54102 0.234288
6883.71777 0.234027
6884.89600 0.233766
6886.07422 0.233505
6887.25195 0.233244
6888.43018 0.232984
6889.60889 0.232723
6890.78809 0.232446
6891.96680 0.232163
6893.14600 0.231891
6894.32520 0.231619
6895.50488 0.231348
6896.68506 0.231076
6897.86523 0.230805
6899.04492 0.230534
6900.22510 0.230267
6901.40576 0.230019
6902.58594 0.229797
6903.76807 0.229594
6904.94922 0.229391
6906.12988 0.229188
6907.31201 0.228985
6908.49414 0.228782
6909.67578 0.228579
6910.85791 0.228376
6912.04004 0.228188
6913.22314 0.22812
6914.40576 0.228052
6915.58887 0.227984
6916.77197 0.227915
6917.95508 0.227847
6919.13916 0.227779
6920.32324 0.227705
6921.50684 0.227613
6922.69092 0.22758
6923.87500 0.227577
6925.06006 0.227574
6926.24512 0.227571
6927.43018 0.227568
6928.61523 0.227565
6929.80078 0.227562
6930.98584 0.227578
6932.17188 0.227598
6933.35791 0.227614
6934.54395 0.227631
6935.73096 0.227647
6936.91699 0.227663
6938.10400 0.22768
6939.29199 0.227696
6940.47900 0.227703
6941.66699 0.227695
6942.85400 0.227637
6944.04199 0.227564
6945.22998 0.227492
6946.41797 0.227419
6947.60693 0.227347
6948.79492 0.227274
6949.98389 0.227202
6951.17285 0.227153
6952.36279 0.22708
6953.55176 0.226967
6954.74219 0.226854
6955.93213 0.22674
6957.12207 0.226627
6958.31299 0.226514
6959.50293 0.226401
6960.69385 0.226288
6961.88477 0.226175
6963.07617 0.226057
6964.26709 0.22594
6965.45801 0.225822
6966.64990 0.225704
6967.84180 0.225586
6969.03516 0.225468
6970.22705 0.225346
6971.41895 0.225205
6972.61182 0.225108
6973.80518 0.225042
6974.99902 0.224976
6976.19189 0.22491
6977.38477 0.224844
6978.57910 0.224778
6979.77295 0.224713
6980.96680 0.224666
6982.16211 0.224657
6983.35596 0.224782
6984.55078 0.224908
6985.74609 0.225033
6986.94092 0.225159
6988.13721 0.225284
6989.33301 0.22541
6990.52783 0.225535
6991.72412 0.22566
6992.91992 0.225933
6994.11719 0.226236
6995.31299 0.226539
6996.50977 0.226842
6997.70801 0.227145
6998.90479 0.227447
7000.10303 0.227746
7001.29980 0.22801
7002.49805 0.228331
7003.69580 0.228716
7004.89404 0.2291
7006.09277 0.229485
7007.29199 0.229869
7008.49023 0.230252
7009.68896 0.230636
7010.88916 0.231037
7012.08789 0.231428
7013.28809 0.231718
7014.48779 0.232007
7015.68799 0.232295
7016.88916 0.232584
7018.08887 0.232873
7019.29004 0.233161
7020.49121 0.233439
7021.69189 0.233703
7022.89307 0.233392
7024.09521 0.232934
7025.29688 0.232476
7026.49902 0.232019
7027.70117 0.231562
7028.90283 0.231105
7030.10596 0.23065
7031.30908 0.230208
7032.51221 0.229025
7033.71484 0.227029
7034.91797 0.225033
7036.12207 0.223039
7037.32617 0.221046
7038.52979 0.219054
7039.73389 0.217063
7040.93799 0.215072
7042.14307 0.212721
7043.34814 0.208567
7044.55322 0.204416
7045.75781 0.200268
7046.96387 0.196121
7048.16895 0.191977
7049.37500 0.187835
7050.58203 0.183686
7051.78809 0.179529
7052.99512 0.173954
7054.20117 0.168173
7055.40820 0.162396
7056.61523 0.156623
7057.82324 0.150854
7059.02979 0.145091
7060.23779 0.139335
7061.44580 0.133594
7062.65381 0.12789
7063.86182 0.122219
7065.07080 0.116547
7066.27979 0.110882
7067.48877 0.105219
7068.69824 0.099557
7069.90820 0.093899
7071.11719 0.088237
7072.32715 0.083055
7073.53711 0.078927
7074.74707 0.074803
7075.95801 0.070681
7077.16797 0.066562
7078.37891 0.062446
7079.58984 0.058334
7080.80176 0.054228
7082.01318 0.050205
7083.22510 0.047649
7084.43701 0.045095
7085.64893 0.042541
7086.86084 0.039989
7088.07422 0.037438
7089.28613 0.034889
7090.50000 0.032339
7091.71191 0.029791
7092.92578 0.028054
7094.13916 0.026522
7095.35303 0.02499
7096.56689 0.02346
7097.78076 0.021931
7098.99609 0.020403
7100.20996 0.018877
7101.42480 0.017353
7102.64014 0.016209
7103.85498 0.015362
7105.07080 0.014515
7106.28613 0.013669
7107.50195 0.012823
7108.71777 0.011978
7109.93506 0.011133
7111.15088 0.010289
7112.36816 0.009571
7113.58398 0.009104
7114.80176 0.008638
7116.01904 0.008172
7117.23584 0.007706
7118.45410 0.00724
7119.67188 0.006774
7120.89014 0.006309
7122.10791 0.005866
7123.32715 0.00559
7124.54590 0.005314
7125.76514 0.005038
7126.98389 0.004763
7128.20410 0.004487
7129.42285 0.004212
7130.64307 0.003938
7131.86279 0.003663
7133.08301 0.003488
7134.30420 0.003322
7135.52393 0.003156
7136.74512 0.002991
7137.96582 0.002825
7139.18799 0.002659
7140.40918 0.002494
7141.62988 0.002328
7142.85303 0.00221
7144.07520 0.00211
7145.29688 0.00201
7146.52002 0.001911
7147.74219 0.001811
7148.96484 0.001711
7150.18799 0.001612
7151.41211 0.001513
7152.63477 0.001434
7153.85889 0.001373
7155.08301 0.001311
7156.30713 0.00125
7157.53076 0.001189
7158.75586 0.001128
7159.98096 0.001067
7161.20605 0.001005
7162.43115 0.000953
7163.65723 0.000915
7164.88184 0.000877
7166.10791 0.000839
7167.33398 0.000801
7168.56104 0.000764
7169.78711 0.000726
7171.01416 0.000688
7172.24121 0.000653
7173.46777 0.000626
7174.69482 0.000599
7175.92285 0.000572
7177.14990 0.000546
7178.37793 0.000519
7179.60596 0.000492
7180.83496 0.000466
7182.06299 0.00044
7183.29199 0.000424
7184.52100 0.000408
7902.97314 0.0
