# %ECSV 0.9
# ---
# datatype:
# - {name: wavelength, unit: Angstrom, datatype: float32}
# - {name: response, datatype: float32}
# meta: !!omap
# - {band_name: F600LP}
# - {group_name: WFC3_UVIS2}
wavelength response
5293.73389 0.0
5881.92676 0.000403
5882.93311 0.000424
5883.93896 0.000445
5884.94580 0.000467
5885.95312 0.000488
5886.95898 0.000509
5887.96680 0.000531
5888.97412 0.000552
5889.98096 0.000573
5890.98877 0.000594
5891.99707 0.000621
5893.00391 0.000658
5894.01318 0.000695
5895.02100 0.000732
5896.02881 0.000769
5897.03809 0.000806
5898.04590 0.000843
5899.05518 0.00088
5900.06396 0.000917
5901.07422 0.000954
5902.08301 0.000999
5903.09277 0.001054
5904.10303 0.001109
5905.11279 0.001165
5906.12305 0.00122
5907.13281 0.001275
5908.14404 0.00133
5909.15381 0.001386
5910.16504 0.001441
5911.17578 0.001496
5912.18701 0.001567
5913.19922 0.00165
5914.20996 0.001732
5915.22217 0.001815
5916.23389 0.001898
5917.24609 0.001981
5918.25781 0.002064
5919.27100 0.002147
5920.28320 0.002229
5921.29492 0.002312
5922.30908 0.002426
5923.32178 0.002555
5924.33496 0.002683
5925.34814 0.002812
5926.36182 0.002941
5927.37500 0.00307
5928.39014 0.003199
5929.40381 0.003328
5930.41797 0.003457
5931.43311 0.003586
5932.44678 0.003762
5933.46191 0.003951
5934.47705 0.004139
5935.49219 0.004328
5936.50684 0.004516
5937.52295 0.004704
5938.53906 0.004893
5939.55518 0.005081
5940.56982 0.00527
5941.58691 0.005458
5942.60303 0.00572
5943.62012 0.005986
5944.63623 0.006252
5945.65283 0.006518
5946.66992 0.006784
5947.68701 0.00705
5948.70508 0.007317
5949.72314 0.007583
5950.74023 0.007849
5951.75781 0.008126
5952.77588 0.008494
5953.79492 0.008862
5954.81299 0.00923
5955.83203 0.009598
5956.85107 0.009966
5957.87012 0.010334
5958.88916 0.010702
5959.90820 0.011071
5960.92822 0.011439
5961.94678 0.011844
5962.96680 0.012339
5963.98682 0.012835
5965.00684 0.013331
5966.02783 0.013826
5967.04785 0.014322
5968.06885 0.014818
5969.08984 0.015314
5970.11084 0.015809
5971.13184 0.016304
5972.15381 0.016872
5973.17480 0.017516
5974.19678 0.018161
5975.21924 0.018805
5976.24121 0.019449
5977.26416 0.020094
5978.28613 0.020738
5979.30908 0.021382
5980.33203 0.022027
5981.35400 0.022673
5982.37793 0.023423
5983.40088 0.024217
5984.42480 0.025011
5985.44824 0.025804
5986.47217 0.026598
5987.49707 0.027393
5988.52100 0.028187
5989.54492 0.028981
5990.56982 0.029775
5991.59424 0.030569
5992.61914 0.031494
5993.64502 0.032429
5994.66992 0.033363
5995.69482 0.034297
5996.72119 0.035231
5997.74707 0.036165
5998.77197 0.0371
5999.79883 0.038034
6000.82520 0.038972
6001.85205 0.039943
6002.87793 0.041057
6003.90479 0.042172
6004.93213 0.043286
6005.95898 0.044401
6006.98682 0.045516
6008.01416 0.046632
6009.04199 0.047748
6010.06982 0.048864
6011.09814 0.049981
6012.12598 0.05117
6013.15479 0.052447
6014.18408 0.053725
6015.21191 0.055003
6016.24121 0.056281
6017.27100 0.05756
6018.29980 0.05884
6019.32910 0.060119
6020.35889 0.061399
6021.38916 0.062679
6022.41895 0.064022
6023.44922 0.065387
6024.47900 0.066753
6025.50977 0.068118
6026.54102 0.069485
6027.57178 0.070852
6028.60303 0.072219
6029.63379 0.073587
6030.66602 0.074951
6031.69678 0.076313
6032.72900 0.077748
6033.76123 0.079183
6034.79297 0.080618
6035.82520 0.082053
6036.85791 0.083488
6037.89111 0.084924
6038.92285 0.086359
6039.95703 0.087795
6040.99023 0.089238
6042.02295 0.090711
6043.05713 0.092242
6044.08984 0.093772
6045.12402 0.095303
6046.15820 0.096834
6047.19189 0.098366
6048.22705 0.099898
6049.26221 0.101431
6050.29590 0.102964
6051.33203 0.104498
6052.36719 0.106033
6053.40186 0.10757
6054.43799 0.109108
6055.47314 0.110645
6056.50879 0.112184
6057.54492 0.113722
6058.58105 0.115261
6059.61816 0.116801
6060.65381 0.118341
6061.69092 0.119881
6062.72803 0.121385
6063.76514 0.12289
6064.80176 0.124395
6065.83887 0.1259
6066.87695 0.127407
6067.91504 0.128913
6068.95312 0.13042
6069.99121 0.131928
6071.02979 0.133436
6072.06787 0.134928
6073.10693 0.136397
6074.14600 0.137865
6075.18506 0.139333
6076.22412 0.140803
6077.26318 0.142272
6078.30322 0.143742
6079.34277 0.145213
6080.38281 0.146684
6081.42285 0.148155
6082.46289 0.149592
6083.50293 0.151018
6084.54395 0.152445
6085.58496 0.153871
6086.62598 0.155298
6087.66699 0.156726
6088.70801 0.158154
6089.75000 0.159582
6090.79199 0.161
6091.83398 0.162402
6092.87598 0.163726
6093.91797 0.16505
6094.95996 0.166375
6096.00293 0.1677
6097.04590 0.169024
6098.08887 0.170349
6099.13184 0.171674
6100.17480 0.173001
6101.21924 0.174342
6102.26318 0.175626
6103.30713 0.176864
6104.35107 0.178102
6105.39502 0.17934
6106.43896 0.180579
6107.48389 0.181818
6108.52783 0.183057
6109.57324 0.184297
6110.61914 0.185537
6111.66406 0.186778
6112.70898 0.187935
6113.75488 0.18909
6114.80078 0.190246
6115.84717 0.191402
6116.89307 0.192558
6117.93896 0.193715
6118.98584 0.194872
6120.03320 0.19603
6121.08008 0.197187
6122.12598 0.198306
6123.17383 0.199371
6124.22119 0.200436
6125.26904 0.201501
6126.31689 0.202567
6127.36523 0.203632
6128.41309 0.204698
6129.46094 0.205765
6130.50977 0.206831
6131.55908 0.207898
6132.60693 0.208873
6133.65576 0.209834
6134.70605 0.210796
6135.75488 0.211757
6136.80518 0.21272
6137.85400 0.213682
6138.90381 0.214644
6139.95508 0.215608
6141.00488 0.216571
6142.05518 0.2175
6143.10596 0.218363
6144.15723 0.219226
6145.20801 0.22009
6146.25879 0.220954
6147.31104 0.221818
6148.36182 0.222682
6149.41406 0.223547
6150.46582 0.224403
6151.51807 0.225248
6152.56982 0.226027
6153.62305 0.226791
6154.67480 0.227556
6155.72803 0.228322
6156.78076 0.229087
6157.83398 0.229852
6158.88818 0.230617
6159.94092 0.231383
6160.99512 0.232168
6162.04883 0.232927
6163.10303 0.23363
6164.15723 0.234334
6165.21191 0.235037
6166.26611 0.235741
6167.32080 0.236445
6168.37598 0.237149
6169.43115 0.237853
6170.48682 0.238558
6171.54199 0.239262
6172.59814 0.239902
6173.65381 0.240529
6174.70996 0.241156
6175.76611 0.241784
6176.82324 0.242412
6177.87891 0.243039
6178.93604 0.243667
6179.99316 0.244295
6181.04980 0.244924
6182.10693 0.245526
6183.16504 0.246085
6184.22314 0.246643
6185.28076 0.247202
6186.33887 0.247761
6187.39697 0.24832
6188.45605 0.24888
6189.51416 0.24944
6190.57324 0.249999
6191.63184 0.250559
6192.69092 0.251071
6193.75000 0.25158
6194.81006 0.252088
6195.87012 0.252598
6196.92920 0.253107
6197.98877 0.253616
6199.04980 0.254125
6200.10986 0.254632
6201.16992 0.255119
6202.23096 0.255578
6203.29199 0.25601
6204.35400 0.256441
6205.41504 0.256873
6206.47705 0.257305
6207.53809 0.257736
6208.60010 0.258168
6209.66211 0.2586
6210.72412 0.259047
6211.78711 0.259499
6212.84912 0.259897
6213.91211 0.260296
6214.97510 0.260694
6216.03809 0.261092
6217.10205 0.261491
6218.16504 0.26189
6219.22900 0.262288
6220.29199 0.262687
6221.35596 0.263086
6222.42090 0.263451
6223.48486 0.263797
6224.54980 0.264143
6225.61523 0.264489
6226.68018 0.264835
6227.74512 0.265182
6228.81006 0.265528
6229.87500 0.265875
6230.94092 0.266223
6232.00684 0.266562
6233.07324 0.266871
6234.14014 0.267182
6235.20605 0.267491
6236.27197 0.267802
6237.33887 0.268112
6238.40576 0.268422
6239.47412 0.268732
6240.54102 0.269031
6241.60791 0.269316
6242.67578 0.269594
6243.74414 0.26987
6244.81201 0.270146
6245.87988 0.270423
6246.94922 0.270699
6248.01709 0.270975
6249.08594 0.271252
6250.15479 0.271532
6251.22412 0.271833
6252.29297 0.272102
6253.36279 0.272343
6254.43311 0.272584
6255.50195 0.272825
6256.57324 0.273066
6257.64307 0.273307
6258.71289 0.273548
6259.78418 0.273789
6260.85498 0.27403
6261.92578 0.274269
6262.99707 0.274496
6264.06787 0.274723
6265.14014 0.274951
6266.21191 0.275178
6267.28418 0.275406
6268.35498 0.275633
6269.42822 0.275861
6270.50000 0.276089
6271.57324 0.276317
6272.64600 0.276522
6273.71924 0.276723
6274.79199 0.276925
6275.86621 0.277126
6276.93896 0.277328
6278.01318 0.27753
6279.08691 0.277731
6280.16113 0.277933
6281.23486 0.278135
6282.31006 0.278328
6283.38379 0.278513
6284.45898 0.278699
6285.53418 0.278884
6286.60889 0.279069
6287.68506 0.279255
6288.75977 0.27944
6289.83594 0.279626
6290.91211 0.27979
6291.98779 0.279945
6293.06396 0.280087
6294.14111 0.280228
6295.21777 0.28037
6296.29395 0.280512
6297.37207 0.280653
6298.44922 0.280795
6299.52588 0.280937
6300.60400 0.281093
6301.68213 0.28126
6302.75977 0.28141
6303.83789 0.281559
6304.91602 0.281708
6305.99512 0.281858
6307.07324 0.282007
6308.15186 0.282156
6309.23096 0.282305
6310.31104 0.282454
6311.39014 0.282604
6312.47021 0.282739
6313.54980 0.282867
6314.62988 0.282995
6315.70996 0.283123
6316.79004 0.283251
6317.87109 0.28338
6318.95215 0.283508
6320.03223 0.283637
6321.11377 0.283765
6322.19482 0.283885
6323.27588 0.283995
6324.35791 0.284104
6325.43994 0.284213
6326.52197 0.284323
6327.60400 0.284432
6328.68701 0.284542
6329.76904 0.284651
6330.85205 0.28474
6331.93506 0.284824
6333.01807 0.284912
6334.10205 0.285
6335.18506 0.285089
6336.26904 0.285177
6337.35303 0.285265
6338.43701 0.285354
6339.52100 0.285442
6340.60498 0.285545
6341.68994 0.28566
6342.77490 0.285753
6343.85986 0.285844
6344.94482 0.285936
6346.02979 0.286028
6347.11621 0.28612
6348.20215 0.286212
6349.28809 0.286303
6350.37402 0.286395
6351.45996 0.286487
6352.54590 0.286576
6353.63281 0.286664
6354.72021 0.286753
6355.80713 0.286841
6356.89502 0.28693
6357.98193 0.287018
6359.06885 0.287106
6360.15723 0.287195
6361.24512 0.287283
6362.33301 0.287366
6363.42188 0.287444
6364.50977 0.287522
6365.59912 0.2876
6366.68799 0.287678
6367.77686 0.287756
6368.86621 0.287834
6369.95605 0.287912
6371.04492 0.287964
6372.13477 0.288017
6373.22510 0.288075
6374.31494 0.288132
6375.40576 0.28819
6376.49707 0.288247
6377.58691 0.288305
6378.67822 0.288362
6379.77002 0.28842
6380.86084 0.288498
6381.95215 0.288578
6383.04395 0.288637
6384.13623 0.288695
6385.22803 0.288754
6386.31982 0.288813
6387.41309 0.288872
6388.50488 0.288931
6389.59814 0.288989
6390.69092 0.289048
6391.78418 0.289107
6392.87793 0.289175
6393.97119 0.289244
6395.06494 0.289313
6396.15918 0.289382
6397.25293 0.28945
6398.34814 0.289519
6399.44189 0.289588
6400.53711 0.289656
6401.63184 0.289725
6402.72705 0.289776
6403.82178 0.289824
6404.91699 0.289872
6406.01318 0.289921
6407.10889 0.289969
6408.20508 0.290017
6409.30078 0.290066
6410.39697 0.290104
6411.49414 0.290125
6412.59082 0.290148
6413.68799 0.290173
6414.78516 0.290197
6415.88184 0.290221
6416.97998 0.290245
6418.07812 0.29027
6419.17480 0.290294
6420.27295 0.290325
6421.37207 0.290376
6422.47021 0.290426
6423.56885 0.290476
6424.66699 0.290525
6425.76709 0.290575
6426.86621 0.290624
6427.96484 0.290674
6429.06494 0.290723
6430.16504 0.290772
6431.26514 0.290816
6432.36523 0.290853
6433.46484 0.290885
6434.56494 0.290917
6435.66602 0.29095
6436.76709 0.290982
6437.86816 0.291014
6438.97021 0.291046
6440.07080 0.291078
6441.17285 0.29111
6442.27393 0.291142
6443.37598 0.291174
6444.47900 0.291206
6445.58105 0.291238
6446.68408 0.29127
6447.78711 0.291302
6448.89014 0.291334
6449.99316 0.291366
6451.09619 0.29137
6452.20020 0.291377
6453.30322 0.291389
6454.40723 0.291402
6455.51123 0.291414
6456.61621 0.291426
6457.72021 0.291438
6458.82520 0.291451
6459.93018 0.291463
6461.03516 0.291501
6462.14014 0.291535
6463.24512 0.29156
6464.35107 0.291584
6465.45703 0.291608
6466.56299 0.291633
6467.66895 0.291657
6468.77490 0.291681
6469.88184 0.291705
6470.98877 0.291729
6472.09619 0.291753
6473.20312 0.291777
6474.31006 0.291801
6475.41699 0.291826
6476.52490 0.29185
6477.63281 0.291874
6478.74121 0.291898
6479.85010 0.291922
6480.95801 0.291946
6482.06592 0.291967
6483.17480 0.291979
6484.28418 0.291991
6485.39404 0.292003
6486.50293 0.292015
6487.61279 0.292028
6488.72217 0.29204
6489.83301 0.292052
6490.94189 0.29204
6492.05322 0.292031
6493.16406 0.292041
6494.27393 0.292052
6495.38477 0.292063
6496.49609 0.292073
6497.60693 0.292084
6498.71924 0.292095
6499.83105 0.292105
6500.94189 0.292087
6502.05518 0.292055
6503.16699 0.291996
6504.27881 0.291936
6505.39209 0.291877
6506.50488 0.291818
6507.61816 0.291759
6508.73096 0.2917
6509.84424 0.291641
6510.95801 0.291581
6512.07178 0.291525
6513.18604 0.291483
6514.29980 0.29144
6515.41406 0.291397
6516.52881 0.291354
6517.64404 0.291311
6518.75781 0.291268
6519.87402 0.291225
6520.98877 0.291157
6522.10400 0.291084
6523.22021 0.291007
6524.33594 0.29093
6525.45215 0.290854
6526.56787 0.290777
6527.68506 0.2907
6528.80078 0.290623
6529.91797 0.290546
6531.03516 0.290495
6532.15186 0.290447
6533.27002 0.290401
6534.38721 0.290355
6535.50488 0.29031
6536.62305 0.290264
6537.74121 0.290219
6538.85986 0.290173
6539.97803 0.290127
6541.09717 0.290081
6542.21582 0.290033
6543.33496 0.289982
6544.45410 0.28993
6545.57422 0.289878
6546.69287 0.289826
6547.81299 0.289774
6548.93408 0.289722
6550.05420 0.28967
6551.17383 0.289618
6552.29492 0.289565
6553.41602 0.289511
6554.53711 0.289457
6555.65820 0.289404
6556.77881 0.28935
6557.90088 0.289296
6559.02295 0.289243
6560.14502 0.289185
6561.26709 0.289104
6562.39014 0.289025
6563.51221 0.288951
6564.63477 0.288876
6565.75781 0.288801
6566.88086 0.288726
6568.00391 0.288652
6569.12793 0.288577
6570.25098 0.288508
6571.37500 0.288461
6572.50000 0.288404
6573.62402 0.288341
6574.74902 0.288278
6575.87305 0.288215
6576.99805 0.288152
6578.12305 0.288089
6579.24805 0.288025
6580.37402 0.287962
6581.50000 0.287899
6582.62500 0.287839
6583.75098 0.28778
6584.87695 0.287722
6586.00391 0.287664
6587.12988 0.287605
6588.25684 0.287546
6589.38379 0.287488
6590.51221 0.287417
6591.63916 0.28733
6592.76709 0.287252
6593.89404 0.287175
6595.02197 0.287098
6596.14990 0.28702
6597.27881 0.286943
6598.40723 0.286866
6599.53613 0.286789
6600.66504 0.286728
6601.79395 0.286679
6602.92285 0.286621
6604.05322 0.286563
6605.18311 0.286504
6606.31299 0.286446
6607.44189 0.286388
6608.57324 0.28633
6609.70312 0.286272
6610.83398 0.286213
6611.96484 0.286156
6613.09619 0.286108
6614.22705 0.286059
6615.35791 0.28601
6616.49023 0.285962
6617.62207 0.285913
6618.75391 0.285865
6619.88623 0.285816
6621.01904 0.285768
6622.15088 0.285713
6623.28418 0.285642
6624.41699 0.285571
6625.54980 0.285501
6626.68408 0.28543
6627.81689 0.285359
6628.95117 0.285289
6630.08496 0.285215
6631.21924 0.285104
6632.35400 0.284997
6633.48779 0.284896
6634.62305 0.284795
6635.75781 0.284694
6636.89307 0.284593
6638.02783 0.284492
6639.16406 0.284391
6640.29883 0.284298
6641.43506 0.284224
6642.57080 0.284148
6643.70801 0.284071
6644.84424 0.283994
6645.98096 0.283917
6647.11816 0.28384
6648.25488 0.283763
6649.39209 0.283686
6650.52881 0.283609
6651.66699 0.283531
6652.80518 0.283465
6653.94287 0.283401
6655.08105 0.283336
6656.22021 0.283272
6657.35791 0.283208
6658.49707 0.283143
6659.63623 0.283079
6660.77490 0.282996
6661.91504 0.282903
6663.05420 0.282802
6664.19385 0.282701
6665.33398 0.2826
6666.47510 0.282499
6667.61523 0.282399
6668.75488 0.282298
6669.89600 0.282197
6671.03711 0.282122
6672.17822 0.282044
6673.31885 0.281955
6674.46094 0.281866
6675.60303 0.281778
6676.74512 0.281689
6677.88721 0.2816
6679.02881 0.281512
6680.17188 0.281423
6681.31396 0.281334
6682.45801 0.281255
6683.60107 0.281185
6684.74414 0.281115
6685.88721 0.281044
6687.03076 0.280974
6688.17480 0.280904
6689.31885 0.280834
6690.46289 0.280752
6691.60791 0.280654
6692.75195 0.280541
6693.89697 0.280424
6695.04199 0.280307
6696.18799 0.28019
6697.33301 0.280073
6698.47900 0.279956
6699.62500 0.279839
6700.77100 0.27974
6701.91699 0.279653
6703.06299 0.2796
6704.20996 0.279546
6705.35693 0.279493
6706.50391 0.27944
6707.65088 0.279387
6708.79883 0.279333
6709.94580 0.27928
6711.09424 0.279227
6712.24219 0.279162
6713.39014 0.279075
6714.53906 0.278988
6715.68701 0.278902
6716.83594 0.278815
6717.98486 0.278728
6719.13379 0.278641
6720.28418 0.278548
6721.43311 0.278433
6722.58301 0.278319
6723.73291 0.278206
6724.88281 0.278092
6726.03418 0.277979
6727.18408 0.277866
6728.33496 0.277752
6729.48584 0.277639
6730.63721 0.277541
6731.78906 0.277455
6732.93994 0.277387
6734.09180 0.277321
6735.24414 0.277254
6736.39600 0.277188
6737.54785 0.277121
6738.70117 0.277055
6739.85400 0.276988
6741.00586 0.276922
6742.16016 0.276853
6743.31299 0.276778
6744.46582 0.276703
6745.62012 0.276628
6746.77393 0.276553
6747.92822 0.276478
6749.08301 0.276403
6750.23682 0.276323
6751.39209 0.27622
6752.54590 0.276118
6753.70215 0.276016
6754.85693 0.275913
6756.01221 0.275811
6757.16797 0.275709
6758.32422 0.275607
6759.47998 0.275505
6760.63623 0.275418
6761.79297 0.275343
6762.95020 0.275265
6764.10596 0.275187
6765.26416 0.275109
6766.42090 0.275031
6767.57812 0.274953
6768.73584 0.274875
6769.89404 0.274797
6771.05176 0.274719
6772.20996 0.27464
6773.36914 0.274562
6774.52686 0.274484
6775.68604 0.274405
6776.84521 0.274327
6778.00391 0.274249
6779.16406 0.27417
6780.32422 0.274084
6781.48291 0.273978
6782.64404 0.273879
6783.80420 0.273784
6784.96387 0.273688
6786.12500 0.273593
6787.28613 0.273497
6788.44678 0.273402
6789.60791 0.273306
6790.77002 0.273229
6791.93115 0.27316
6793.09277 0.273073
6794.25488 0.272985
6795.41699 0.272898
6796.58008 0.272811
6797.74219 0.272724
6798.90479 0.272637
6800.06787 0.27255
6801.23096 0.272462
6802.39502 0.272381
6803.55908 0.272308
6804.72217 0.272235
6805.88623 0.272162
6807.05078 0.272088
6808.21484 0.272015
6809.37891 0.271942
6810.54395 0.271855
6811.70898 0.271755
6812.87500 0.271646
6814.04004 0.271537
6815.20605 0.271427
6816.37207 0.271318
6817.53809 0.271209
6818.70410 0.271099
6819.87012 0.27099
6821.03711 0.270905
6822.20410 0.270823
6823.37109 0.270745
6824.53809 0.270666
6825.70605 0.270587
6826.87305 0.270508
6828.04102 0.270429
6829.20898 0.270351
6830.37695 0.270274
6831.54492 0.270203
6832.71387 0.270125
6833.88281 0.270045
6835.05176 0.269964
6836.22119 0.269884
6837.39111 0.269803
6838.56006 0.269723
6839.72998 0.269642
6840.89990 0.269541
6842.06982 0.269435
6843.24121 0.269339
6844.41113 0.269243
6845.58203 0.269147
6846.75293 0.269051
6847.92383 0.268955
6849.09619 0.268859
6850.26807 0.26877
6851.43896 0.268701
6852.61084 0.268641
6853.78320 0.268586
6854.95605 0.26853
6856.12793 0.268475
6857.30078 0.26842
6858.47412 0.268365
6859.64697 0.26831
6860.82080 0.268236
6861.99512 0.268151
6863.16797 0.268052
6864.34180 0.267954
6865.51709 0.267854
6866.69092 0.267755
6867.86621 0.267656
6869.04102 0.267558
6870.21484 0.267464
6871.39111 0.267392
6872.56592 0.267318
6873.74219 0.267242
6874.91699 0.267166
6876.09424 0.26709
6877.27002 0.267014
6878.44580 0.266939
6879.62305 0.266863
6880.79980 0.266787
6881.97705 0.266712
6883.15381 0.266649
6884.33203 0.266587
6885.50879 0.266524
6886.68701 0.266461
6887.86523 0.266398
6889.04297 0.266336
6890.22217 0.266268
6891.39990 0.266178
6892.58008 0.266075
6893.75781 0.265962
6894.93799 0.265848
6896.11719 0.265735
6897.29688 0.265622
6898.47705 0.265509
6899.65723 0.265396
6900.83691 0.265302
6902.01807 0.265218
6903.19824 0.265147
6904.37891 0.265077
6905.56006 0.265007
6906.74121 0.264937
6907.92285 0.264866
6909.10400 0.264796
6910.28711 0.264726
6911.46924 0.264655
6912.65088 0.264589
6913.83301 0.264524
6915.01611 0.26446
6916.19922 0.264396
6917.38184 0.264331
6918.56494 0.264267
6919.74902 0.264202
6920.93311 0.264117
6922.11719 0.264024
6923.30078 0.263926
6924.48486 0.263828
6925.66895 0.26373
6926.85400 0.263632
6928.03906 0.263534
6929.22412 0.263436
6930.41016 0.263348
6931.59521 0.263277
6932.78076 0.263209
6933.96680 0.263141
6935.15283 0.263074
6936.33887 0.263007
6937.52588 0.262939
6938.71191 0.262872
6939.89893 0.262805
6941.08594 0.262713
6942.27393 0.262621
6943.46094 0.262534
6944.64893 0.262447
6945.83691 0.26236
6947.02490 0.262273
6948.21387 0.262186
6949.40186 0.262098
6950.59082 0.262025
6951.77979 0.261965
6952.96924 0.261884
6954.15918 0.2618
6955.34814 0.261717
6956.53809 0.261633
6957.72803 0.261549
6958.91797 0.261466
6960.10889 0.261382
6961.29883 0.261299
6962.49023 0.261227
6963.68115 0.261167
6964.87305 0.261107
6966.06396 0.261047
6967.25488 0.260988
6968.44678 0.260928
6969.63916 0.260868
6970.83203 0.26079
6972.02393 0.260702
6973.21680 0.260606
6974.41016 0.26051
6975.60303 0.260413
6976.79590 0.260317
6977.98877 0.260221
6979.18311 0.260124
6980.37695 0.260037
6981.57080 0.259968
6982.76514 0.259901
6983.95898 0.259836
6985.15381 0.259771
6986.34912 0.259706
6987.54395 0.259641
6988.74023 0.259576
6989.93506 0.259511
6991.13086 0.259445
6992.32715 0.259379
6993.52295 0.259311
6994.71924 0.259243
6995.91602 0.259175
6997.11182 0.259107
6998.31006 0.259039
6999.50586 0.258971
7000.70410 0.258877
7001.90088 0.258764
7003.09912 0.258648
7004.29688 0.258531
7005.49512 0.258414
7006.69385 0.258297
7007.89209 0.258181
7009.09082 0.258064
7010.29004 0.257954
7011.48877 0.257864
7012.68799 0.257777
7013.88818 0.257691
7015.08789 0.257605
7016.28809 0.257519
7017.48779 0.257433
7018.68896 0.257347
7019.88916 0.257261
7021.08984 0.257151
7022.29102 0.257038
7023.49316 0.256922
7024.69385 0.256806
7025.89600 0.256691
7027.09814 0.256575
7028.29883 0.256459
7029.50195 0.256344
7030.70410 0.256238
7031.90723 0.256138
7033.10986 0.256043
7034.31299 0.255947
7035.51611 0.255852
7036.72021 0.255756
7037.92285 0.255661
7039.12695 0.255565
7040.33203 0.25547
7041.53613 0.255374
7042.74023 0.255283
7043.94482 0.255193
7045.14990 0.255103
7046.35498 0.255013
7047.56104 0.254923
7048.76611 0.254833
7049.97217 0.254744
7051.17822 0.254628
7052.38379 0.254509
7053.58984 0.254389
7054.79688 0.254268
7056.00391 0.254147
7057.21094 0.254027
7058.41797 0.253906
7059.62500 0.253786
7060.83301 0.253684
7062.04102 0.25359
7063.24902 0.253502
7064.45801 0.253413
7065.66602 0.253325
7066.87500 0.253236
7068.08301 0.253148
7069.29199 0.253059
7070.50195 0.25296
7071.71094 0.252845
7072.92090 0.252723
7074.13086 0.2526
7075.34082 0.252476
7076.55078 0.252353
7077.76221 0.25223
7078.97314 0.252107
7080.18408 0.251987
7081.39502 0.251891
7082.60596 0.251796
7083.81689 0.251701
7085.02881 0.251607
7086.24121 0.251512
7087.45410 0.251418
7088.66602 0.251323
7089.87793 0.251229
7091.09082 0.251111
7092.30420 0.25099
7093.51807 0.25087
7094.73096 0.250749
7095.94482 0.250628
7097.15918 0.250508
7098.37305 0.250387
7099.58691 0.250267
7100.80078 0.250164
7102.01611 0.25007
7103.23096 0.249978
7104.44580 0.249886
7105.66113 0.249795
7106.87695 0.249703
7108.09180 0.249611
7109.30908 0.24952
7110.52393 0.249428
7111.74121 0.249336
7112.95801 0.249249
7114.17383 0.249163
7115.39111 0.249077
7116.60791 0.248991
7117.82617 0.248905
7119.04297 0.248818
7120.26123 0.248726
7121.47900 0.248614
7122.69678 0.248497
7123.91602 0.248377
7125.13379 0.248258
7126.35303 0.248138
7127.57178 0.248018
7128.79199 0.247899
7130.01123 0.247779
7131.22998 0.247686
7132.45117 0.247594
7133.66992 0.247502
7134.89111 0.247411
7136.11084 0.247319
7137.33203 0.247228
7138.55322 0.247136
7139.77393 0.247045
7140.99609 0.246932
7142.21680 0.246812
7143.43896 0.246684
7144.66113 0.246557
7145.88281 0.246429
7147.10498 0.246302
7148.32812 0.246174
7149.55078 0.246046
7150.77393 0.245936
7151.99707 0.245835
7153.22119 0.245742
7154.44385 0.245649
7155.66797 0.245556
7156.89209 0.245463
7158.11621 0.24537
7159.34082 0.245277
7160.56494 0.245172
7161.79102 0.245054
7163.01611 0.244941
7164.24121 0.24483
7165.46582 0.244718
7166.69189 0.244607
7167.91797 0.244496
7169.14404 0.244384
7170.37109 0.244281
7171.59717 0.244196
7172.82422 0.244107
7174.05078 0.244017
7175.27783 0.243927
7176.50488 0.243837
7177.73291 0.243747
7178.96094 0.243657
7180.18896 0.243567
7181.41699 0.243477
7182.64600 0.243381
7183.87500 0.24328
7185.10400 0.24318
7186.33301 0.243079
7187.56201 0.242979
7188.79199 0.242878
7190.02100 0.242777
7191.25098 0.242651
7192.48096 0.24253
7193.71094 0.242417
7194.94189 0.242304
7196.17285 0.242191
7197.40381 0.242079
7198.63477 0.241966
7199.86621 0.241853
7201.09814 0.241764
7202.33008 0.241679
7203.56201 0.241601
7204.79395 0.241523
7206.02686 0.241445
7207.25879 0.241366
7208.49219 0.241288
7209.72510 0.24121
7210.95801 0.241111
7212.19189 0.241004
7213.42578 0.24088
7214.66016 0.240756
7215.89404 0.240632
7217.12793 0.240508
7218.36279 0.240384
7219.59814 0.24026
7220.83301 0.240154
7222.06787 0.240057
7223.30322 0.239965
7224.53906 0.239873
7225.77490 0.239781
7227.01123 0.239689
7228.24707 0.239597
7229.48291 0.239506
7230.72021 0.239392
7231.95703 0.239262
7233.19385 0.239141
7234.43213 0.23902
7235.66895 0.238899
7236.90723 0.238779
7238.14502 0.238658
7239.38281 0.238537
7240.62207 0.238429
7241.85986 0.238335
7243.09912 0.238227
7244.33789 0.238118
7245.57715 0.238009
7246.81592 0.2379
7248.05615 0.237791
7249.29590 0.237682
7250.53613 0.237562
7251.77588 0.237428
7253.01709 0.237304
7254.25781 0.237184
7255.49902 0.237063
7256.74023 0.236942
7257.98096 0.236822
7259.22314 0.236701
7260.46387 0.23659
7261.70703 0.236496
7262.94922 0.236398
7264.19092 0.236299
7265.43408 0.2362
7266.67676 0.236101
7267.91895 0.236002
7269.16309 0.235903
7270.40576 0.235805
7271.64990 0.235706
7272.89404 0.235605
7274.13818 0.235503
7275.38184 0.235401
7276.62695 0.2353
7277.87207 0.235198
7279.11719 0.235096
7280.36182 0.234987
7281.60693 0.234859
7282.85303 0.234734
7284.09912 0.23461
7285.34521 0.234485
7286.59082 0.234361
7287.83691 0.234237
7289.08398 0.234112
7290.33105 0.233995
7291.57812 0.233896
7292.82520 0.233796
7294.07324 0.233695
7295.32080 0.233594
7296.56787 0.233493
7297.81689 0.233392
7299.06494 0.233291
7300.31299 0.233184
7301.56299 0.233057
7302.81201 0.232934
7304.06104 0.232813
7305.31006 0.232692
7306.56006 0.23257
7307.81006 0.232449
7309.06006 0.232328
7310.31006 0.232213
7311.56104 0.232118
7312.81201 0.232021
7314.06299 0.231924
7315.31299 0.231827
7316.56494 0.23173
7317.81592 0.231633
7319.06787 0.231536
7320.31982 0.231433
7321.57178 0.23131
7322.82520 0.231183
7324.07812 0.231055
7325.33105 0.230926
7326.58301 0.230797
7327.83691 0.230668
7329.08984 0.23054
7330.34424 0.230418
7331.59814 0.230315
7332.85205 0.230211
7334.10596 0.230106
7335.36084 0.230002
7336.61621 0.229898
7337.87109 0.229793
7339.12598 0.229689
7340.38184 0.229577
7341.63721 0.229447
7342.89307 0.229325
7344.14893 0.229207
7345.40576 0.229088
7346.66211 0.228969
7347.91895 0.228851
7349.17578 0.228732
7350.43311 0.228622
7351.68994 0.228529
7352.94824 0.228426
7354.20605 0.228319
7355.46387 0.228213
7356.72217 0.228106
7357.97998 0.228
7359.23877 0.227893
7360.49805 0.227777
7361.75684 0.227645
7363.01709 0.227526
7364.27588 0.22741
7365.53613 0.227294
7366.79590 0.227179
7368.05615 0.227063
7369.31592 0.226947
7370.57715 0.226843
7371.83789 0.226752
7373.09912 0.226662
7374.35986 0.226571
7375.62207 0.22648
7376.88281 0.226389
7378.14502 0.226299
7379.40723 0.226208
7380.66895 0.226104
7381.93213 0.225988
7383.19482 0.225867
7384.45801 0.225745
7385.72119 0.225624
7386.98389 0.225502
7388.24805 0.225381
7389.51221 0.22526
7390.77588 0.225154
7392.04004 0.225057
7393.30518 0.224958
7394.56885 0.224858
7395.83398 0.224759
7397.10010 0.224659
7398.36523 0.224559
7399.62988 0.22446
7400.89600 0.224343
7402.16211 0.224219
7403.42920 0.224106
7404.69482 0.223992
7405.96094 0.223879
7407.22900 0.223765
7408.49609 0.223652
7409.76318 0.223538
7411.02979 0.223445
7412.29785 0.223354
7413.56592 0.223251
7414.83398 0.223148
7416.10303 0.223045
7417.37109 0.222941
7418.64014 0.222839
7419.90918 0.222736
7421.17920 0.222609
7422.44824 0.222486
7423.71777 0.222371
7424.98779 0.222256
7426.25781 0.222141
7427.52783 0.222027
7428.79883 0.221912
7430.06885 0.221799
7431.33984 0.221724
7432.61182 0.221646
7433.88281 0.221562
7435.15479 0.221479
7436.42676 0.221395
7437.69922 0.221312
7438.97119 0.221228
7440.24414 0.22114
7441.51611 0.221032
7442.78906 0.220925
7444.06201 0.22082
7445.33594 0.220715
7446.60889 0.22061
7447.88281 0.220505
7449.15723 0.220399
7450.43213 0.220303
7451.70605 0.220222
7452.98096 0.220146
7454.25586 0.22007
7455.53076 0.219994
7456.80615 0.219919
7458.08203 0.219843
7459.35693 0.219768
7460.63379 0.219679
7461.91016 0.219579
7463.18604 0.219471
7464.46289 0.219362
7465.74023 0.219253
7467.01709 0.219144
7468.29395 0.219035
7469.57178 0.218926
7470.85010 0.218833
7472.12695 0.21875
7473.40576 0.218683
7474.68408 0.218615
7475.96289 0.218548
7477.24219 0.21848
7478.52100 0.218413
7479.79980 0.218346
7481.08008 0.218258
7482.35889 0.218159
7483.63916 0.218038
7484.91895 0.217917
7486.20020 0.217795
7487.47998 0.217674
7488.76123 0.217553
7490.04199 0.217433
7491.32324 0.217337
7492.60498 0.217248
7493.88721 0.217169
7495.16797 0.21709
7496.45117 0.217011
7497.73291 0.216932
7499.01611 0.216853
7500.29785 0.21676
7501.58203 0.216622
7502.86523 0.216486
7504.14795 0.216351
7505.43213 0.216217
7506.71582 0.216082
7508.00000 0.215947
7509.28418 0.215813
7510.56885 0.21569
7511.85400 0.21558
7513.13916 0.215468
7514.42383 0.215355
7515.70898 0.215242
7516.99512 0.215128
7518.28076 0.215015
7519.56689 0.214902
7520.85303 0.214773
7522.14014 0.214636
7523.42578 0.214493
7524.71289 0.214351
7526.00000 0.214208
7527.28809 0.214066
7528.57617 0.213924
7529.86279 0.213781
7531.15088 0.213661
7532.43994 0.213546
7533.72803 0.213438
7535.01709 0.21333
7536.30615 0.213222
7537.59521 0.213113
7538.88477 0.213005
7540.17383 0.212894
7541.46387 0.212761
7542.75391 0.21263
7544.04395 0.212499
7545.33496 0.212369
7546.62500 0.212238
7547.91699 0.212108
7549.20801 0.211978
7550.49902 0.211857
7551.79102 0.211751
7553.08301 0.211641
7554.37500 0.211531
7555.66699 0.21142
7556.95898 0.211309
7558.25195 0.211199
7559.54492 0.211088
7560.83789 0.210961
7562.13086 0.210826
7563.42480 0.210684
7564.71924 0.210541
7566.01318 0.210399
7567.30713 0.210256
7568.60205 0.210114
7569.89600 0.209972
7571.19092 0.209852
7572.48584 0.209734
7573.78223 0.209618
7575.07715 0.209502
7576.37305 0.209386
7577.66895 0.20927
7578.96484 0.209154
7580.26221 0.209033
7581.55908 0.208892
7582.85498 0.20875
7584.15283 0.208605
7585.45020 0.208461
7586.74805 0.208317
7588.04492 0.208173
7589.34277 0.208029
7590.64209 0.207896
7591.93994 0.207776
7593.23877 0.207676
7594.53809 0.207577
7595.83691 0.207479
7597.13623 0.207381
7598.43604 0.207282
7599.73584 0.207184
7601.03613 0.207067
7602.33594 0.20694
7603.63623 0.206795
7604.93701 0.20665
7606.23779 0.206505
7607.53906 0.20636
7608.83984 0.206215
7610.14209 0.206071
7611.44385 0.205926
7612.74609 0.205787
7614.04785 0.205654
7615.35107 0.205521
7616.65283 0.205388
7617.95605 0.205255
7619.25879 0.205122
7620.56299 0.204999
7621.86621 0.20489
7623.16992 0.204788
7624.47412 0.204687
7625.77783 0.204587
7627.08301 0.204486
7628.38818 0.204385
7629.69189 0.204285
7630.99805 0.204143
7632.30322 0.203987
7633.60889 0.203815
7634.91504 0.203643
7636.22119 0.203471
7637.52686 0.203299
7638.83301 0.203128
7640.14014 0.202958
7641.44678 0.202811
7642.75391 0.202662
7644.06201 0.202512
7645.36914 0.202363
7646.67676 0.202213
7647.98486 0.202063
7649.29297 0.201914
7650.60205 0.201753
7651.91113 0.20158
7653.21924 0.201427
7654.52881 0.201276
7655.83789 0.201126
7657.14697 0.200975
7658.45801 0.200825
7659.76807 0.200674
7661.07812 0.200543
7662.38818 0.200416
7663.69922 0.200287
7665.00977 0.200157
7666.32080 0.200028
7667.63281 0.199899
7668.94385 0.199769
7670.25586 0.199636
7671.56787 0.199483
7672.88086 0.199317
7674.19287 0.19914
7675.50586 0.198964
7676.81885 0.198788
7678.13184 0.198612
7679.44580 0.198436
7680.75879 0.198274
7682.07324 0.198121
7683.38721 0.197977
7684.70215 0.197832
7686.01611 0.197688
7687.33105 0.197544
7688.64600 0.1974
7689.96094 0.197256
7691.27588 0.197089
7692.59180 0.196923
7693.90820 0.196758
7695.22412 0.196593
7696.54102 0.196428
7697.85693 0.196263
7699.17383 0.196099
7700.49121 0.195934
7701.80908 0.195769
7703.12598 0.195615
7704.44287 0.195465
7705.76221 0.195315
7707.08008 0.195164
7708.39795 0.195014
7709.71680 0.194863
7711.03613 0.194731
7712.35400 0.194602
7713.67383 0.194464
7714.99414 0.194327
7716.31299 0.194189
7717.63281 0.194051
7718.95312 0.193914
7720.27393 0.193772
7721.59424 0.193611
7722.91504 0.193451
7724.23584 0.193291
7725.55811 0.193131
7726.87891 0.19297
7728.20117 0.19281
7729.52295 0.19265
7730.84521 0.192505
7732.16699 0.192368
7733.49023 0.192237
7734.81299 0.192106
7736.13623 0.191974
7737.45996 0.191843
7738.78320 0.191712
7740.10693 0.19158
7741.43115 0.191426
7742.75488 0.191265
7744.08008 0.191096
7745.40479 0.190927
7746.72900 0.190758
7748.05518 0.190589
7749.37988 0.190421
7750.70605 0.190264
7752.03223 0.190118
7753.35791 0.189989
7754.68408 0.18986
7756.01123 0.189732
7757.33691 0.189603
7758.66504 0.189475
7759.99219 0.189346
7761.31885 0.189195
7762.64600 0.189039
7763.97510 0.188875
7765.30322 0.18871
7766.63086 0.188546
7767.95898 0.188381
7769.28906 0.188217
7770.61719 0.188053
7771.94678 0.187889
7773.27588 0.187738
7774.60596 0.187589
7775.93604 0.18744
7777.26611 0.187291
7778.59619 0.187143
7779.92676 0.186994
7781.25781 0.186867
7782.58887 0.186735
7783.91992 0.186593
7785.25195 0.186451
7786.58301 0.186309
7787.91602 0.186167
7789.24805 0.186026
7790.58008 0.185874
7791.91309 0.18571
7793.24609 0.18555
7794.57910 0.18539
7795.91211 0.18523
7797.24609 0.185071
7798.58008 0.184912
7799.91406 0.184752
7801.24805 0.184614
7802.58301 0.184476
7803.91699 0.184337
7805.25195 0.184198
7806.58691 0.184059
7807.92285 0.183921
7809.25781 0.183782
7810.59424 0.183633
7811.93018 0.183473
7813.26709 0.18332
7814.60303 0.183169
7815.93994 0.183019
7817.27686 0.182868
7818.61377 0.182717
7819.95215 0.182567
7821.29004 0.182437
7822.62695 0.182306
7823.96484 0.18217
7825.30420 0.182034
7826.64307 0.181898
7827.98096 0.181762
7829.31982 0.181627
7830.66016 0.181491
7831.99902 0.181357
7833.33887 0.18123
7834.67920 0.181105
7836.01904 0.18098
7837.35986 0.180854
7838.70020 0.180729
7840.04102 0.180604
7841.38184 0.180478
7842.72412 0.180341
7844.06494 0.180188
7845.40723 0.180034
7846.74902 0.179881
7848.09082 0.179728
7849.43408 0.179575
7850.77686 0.179434
7852.12012 0.179303
7853.46289 0.179201
7854.80615 0.179099
7856.14990 0.178998
7857.49414 0.178897
7858.83789 0.178796
7860.18213 0.178692
7861.52686 0.178569
7862.87207 0.178435
7864.21680 0.17829
7865.56201 0.178146
7866.90820 0.178002
7868.25293 0.177857
7869.59912 0.177713
7870.94482 0.177584
7872.29199 0.177463
7873.63916 0.177353
7874.98486 0.177244
7876.33301 0.177134
7877.68018 0.177025
7879.02686 0.176915
7880.37500 0.1768
7881.72314 0.176669
7883.07080 0.176535
7884.41992 0.176401
7885.76904 0.176267
7887.11816 0.176134
7888.46680 0.176
7889.81592 0.175866
7891.16602 0.175732
7892.51611 0.1756
7893.86621 0.17547
7895.21582 0.175341
7896.56689 0.175212
7897.91699 0.175083
7899.26904 0.174954
7900.62012 0.174835
7901.97119 0.174727
7903.32324 0.174629
7904.67480 0.174534
7906.02686 0.174438
7907.37988 0.174342
7908.73193 0.174246
7910.08496 0.174148
7911.43799 0.174031
7912.79199 0.173904
7914.14502 0.173764
7915.49902 0.173624
7916.85303 0.173485
7918.20801 0.173345
7919.56201 0.173205
7920.91699 0.17308
7922.27100 0.172963
7923.62695 0.172863
7924.98193 0.172762
7926.33789 0.172661
7927.69385 0.172561
7929.04980 0.17246
7930.40576 0.172353
7931.76318 0.172231
7933.12012 0.172093
7934.47705 0.171948
7935.83398 0.171803
7937.19092 0.171658
7938.54883 0.171513
7939.90723 0.171368
7941.26611 0.171223
7942.62402 0.171083
7943.98193 0.170952
7945.34082 0.17082
7946.70117 0.170689
7948.06006 0.170558
7949.41992 0.170427
7950.77881 0.170309
7952.14014 0.170199
7953.50000 0.170094
7954.85986 0.169988
7956.22119 0.169883
7957.58203 0.169778
7958.94287 0.169673
7960.30518 0.169564
7961.66699 0.169438
7963.02881 0.169307
7964.39111 0.169172
7965.75293 0.169038
7967.11621 0.168904
7968.47900 0.16877
7969.84180 0.168636
7971.20508 0.168502
7972.56885 0.168371
7973.93311 0.168248
7975.29590 0.168126
7976.66113 0.168003
7978.02490 0.16788
7979.39014 0.167757
7980.75488 0.167647
7982.12012 0.167547
7983.48584 0.167443
7984.85205 0.16734
7986.21680 0.167237
7987.58301 0.167133
7988.95020 0.16703
7990.31592 0.166922
7991.68311 0.166802
7993.04980 0.166681
7994.41699 0.166558
7995.78516 0.166436
7997.15283 0.166314
7998.52100 0.166192
7999.88916 0.16607
8001.25781 0.165962
8002.62598 0.165848
8003.99512 0.165721
8005.36377 0.165594
8006.73389 0.165468
8008.10400 0.165341
8009.47412 0.165214
8010.84424 0.165076
8012.21387 0.164932
8013.58398 0.164814
8014.95508 0.164695
8016.32617 0.164577
8017.69824 0.164459
8019.06885 0.164341
8020.44092 0.164223
8021.81299 0.164106
8023.18506 0.16398
8024.55811 0.16385
8025.93018 0.16372
8027.30322 0.163591
8028.67578 0.163461
8030.04980 0.163332
8031.42285 0.163226
8032.79688 0.163127
8034.17090 0.163038
8035.54590 0.162948
8036.91992 0.162859
8038.29492 0.162769
8039.66992 0.16268
8041.04492 0.162575
8042.42090 0.162464
8043.79688 0.162339
8045.17285 0.162216
8046.54883 0.162091
8047.92480 0.161967
8049.30176 0.161844
8050.67920 0.16172
8052.05615 0.161596
8053.43408 0.16146
8054.81104 0.161322
8056.18896 0.161185
8057.56689 0.161047
8058.94482 0.16091
8060.32422 0.160777
8061.70312 0.16066
8063.08203 0.160561
8064.46094 0.160472
8065.84082 0.160382
8067.22119 0.160293
8068.60107 0.160204
8069.98096 0.160115
8071.36084 0.160005
8072.74219 0.159894
8074.12305 0.159778
8075.50391 0.159663
8076.88477 0.159548
8078.26709 0.159432
8079.64893 0.159317
8081.03076 0.159201
8082.41406 0.159085
8083.79590 0.158965
8085.17920 0.158845
8086.56201 0.158725
8087.94482 0.158606
8089.32910 0.158486
8090.71191 0.158376
8092.09717 0.158276
8093.48096 0.158164
8094.86523 0.15805
8096.25000 0.157935
8097.63477 0.157821
8099.02002 0.157707
8100.40576 0.157587
8101.79199 0.157453
8103.17676 0.15734
8104.56299 0.157237
8105.95020 0.157134
8107.33594 0.157031
8108.72314 0.156928
8110.10986 0.156824
8111.49805 0.156721
8112.88477 0.156606
8114.27295 0.156477
8115.66113 0.156348
8117.04883 0.156219
8118.43799 0.15609
8119.82715 0.155962
8121.21582 0.15585
8122.60498 0.155741
8123.99414 0.155628
8125.38379 0.155516
8126.77393 0.155404
8128.16406 0.155291
8129.55518 0.155179
8130.94482 0.155054
8132.33594 0.154922
8133.72803 0.154797
8135.11914 0.154672
8136.50977 0.154548
8137.90186 0.154423
8139.29395 0.154298
8140.68701 0.154174
8142.07910 0.154049
8143.47217 0.153936
8144.86523 0.153824
8146.25781 0.153712
8147.65186 0.1536
8149.04492 0.153488
8150.43896 0.153383
8151.83301 0.153291
8153.22803 0.153191
8154.62305 0.153089
8156.01807 0.152987
8157.41309 0.152885
8158.80908 0.152783
8160.20410 0.152678
8161.60010 0.152556
8162.99609 0.152436
8164.39307 0.152319
8165.78906 0.152201
8167.18604 0.152083
8168.58301 0.151965
8169.97998 0.151848
8171.37793 0.15173
8172.77588 0.151612
8174.17383 0.151495
8175.57178 0.151378
8176.97119 0.15126
8178.37012 0.151143
8179.76904 0.151026
8181.16797 0.150924
8182.56689 0.150823
8183.96680 0.150707
8185.36719 0.150592
8186.76709 0.150477
8188.16699 0.150362
8189.56787 0.150246
8190.96924 0.150118
8192.37012 0.149985
8193.77148 0.149868
8195.17383 0.149752
8196.57520 0.149636
8197.97754 0.14952
8199.37988 0.149404
8200.78223 0.14929
8202.18555 0.149177
8203.58789 0.149072
8204.99121 0.148967
8206.39648 0.148863
8207.79883 0.148758
8209.20312 0.148654
8210.60742 0.148557
8212.01172 0.148472
8213.41699 0.148365
8214.82129 0.148254
8216.22656 0.148142
8217.63184 0.148031
8219.03809 0.14792
8220.44434 0.147802
8221.85059 0.147672
8223.25684 0.147548
8224.66309 0.147427
8226.07031 0.147306
8227.47754 0.147185
8228.88477 0.147064
8230.29297 0.146946
8231.70020 0.146838
8233.10840 0.146744
8234.51660 0.14666
8235.92578 0.146576
8237.33398 0.146492
8238.74316 0.146407
8240.15234 0.146325
8241.56348 0.14626
8242.97266 0.146174
8244.38184 0.146068
8245.79297 0.145961
8247.20312 0.145854
8248.61426 0.145747
8250.02539 0.14564
8251.43652 0.145514
8252.84766 0.145399
8254.25977 0.145301
8255.67188 0.145202
8257.08398 0.145104
8258.49609 0.145005
8259.90918 0.144907
8261.32227 0.144808
8262.73535 0.144706
8264.14844 0.144598
8265.56348 0.144489
8266.97559 0.14438
8268.39062 0.144271
8269.80469 0.144162
8271.21973 0.144069
8272.63379 0.143982
8274.04883 0.1439
8275.46484 0.143819
8276.87988 0.143738
8278.29590 0.143656
8279.71191 0.143575
8281.12891 0.143478
8282.54492 0.143377
8283.96191 0.143272
8285.37891 0.143167
8286.79688 0.143061
8288.21387 0.142956
8289.63184 0.142851
8291.04980 0.142745
8292.46777 0.14264
8293.88672 0.142534
8295.30566 0.142427
8296.72461 0.142321
8298.14355 0.142215
8299.56348 0.142108
8300.98242 0.142002
8302.40332 0.141896
8303.82324 0.141788
8305.24316 0.14168
8306.66406 0.141572
8308.08496 0.141465
8309.50684 0.141357
8310.92773 0.141261
8312.34961 0.141173
8313.77148 0.141098
8315.19336 0.141024
8316.61621 0.14095
8318.03906 0.140875
8319.46191 0.140801
8320.88477 0.140715
8322.30859 0.140622
8323.73145 0.140515
8325.15527 0.140409
8326.58008 0.140302
8328.00391 0.140196
8329.42871 0.140089
8330.85352 0.139983
8332.27832 0.139876
8333.70410 0.139755
8335.12988 0.139634
8336.55566 0.139513
8337.98145 0.139392
8339.40820 0.139271
8340.83398 0.139161
8342.26074 0.139059
8343.68848 0.138976
8345.11523 0.138894
8346.54297 0.138812
8347.97070 0.13873
8349.39844 0.138647
8350.82715 0.138554
8352.25586 0.138454
8353.68457 0.13833
8355.11328 0.138206
8356.54297 0.138082
8357.97168 0.137958
8359.40137 0.137834
8360.83203 0.13771
8362.26172 0.137586
8363.69238 0.137494
8365.12305 0.137403
8366.55371 0.137313
8367.98535 0.137222
8369.41699 0.137131
8370.84863 0.13704
8372.28027 0.136949
8373.71289 0.136841
8375.14453 0.136733
8376.57812 0.136625
8378.01074 0.136518
8379.44336 0.13641
8380.87695 0.136313
8382.31055 0.136223
8383.74512 0.136129
8385.17871 0.136035
8386.61328 0.135941
8388.04785 0.135847
8389.48242 0.135753
8390.91797 0.135647
8392.35352 0.135535
8393.78906 0.135428
8395.22461 0.13532
8396.66113 0.135212
8398.09668 0.135104
8399.53418 0.134996
8400.97070 0.134898
8402.40723 0.134805
8403.84473 0.134723
8405.28223 0.13464
8406.72070 0.134558
8408.15820 0.134476
8409.59668 0.134393
8411.03516 0.134324
8412.47461 0.134258
8413.91309 0.134183
8415.35254 0.134108
8416.79199 0.134033
8418.23145 0.133957
8419.67188 0.133882
8421.11230 0.133793
8422.55273 0.1337
8423.99316 0.133613
8425.43457 0.133525
8426.87598 0.133437
8428.31738 0.13335
8429.75879 0.133262
8431.20117 0.133189
8432.64355 0.133114
8434.08594 0.133022
8435.52832 0.13293
8436.97168 0.132838
8438.41504 0.132746
8439.85840 0.132654
8441.30176 0.132562
8442.74609 0.132476
8444.19043 0.132406
8445.63477 0.132336
8447.07910 0.132267
8448.52441 0.132197
8449.96973 0.132127
8451.41504 0.132075
8452.86133 0.132016
8454.30664 0.131946
8455.75293 0.131877
8457.19922 0.131807
8458.64648 0.131738
8460.09277 0.131667
8461.54004 0.131579
8462.98828 0.131506
8464.43555 0.131449
8465.88379 0.131392
8467.33203 0.131335
8468.78027 0.131278
8470.22852 0.131221
8471.67773 0.131164
8473.12695 0.131093
8474.57617 0.13101
8476.02637 0.130926
8477.47559 0.130843
8478.92578 0.130759
8480.37695 0.130676
8481.82715 0.130592
8483.27832 0.130511
8484.72852 0.130431
8486.18066 0.130352
8487.63281 0.130271
8489.08398 0.130191
8490.53613 0.130118
8491.98926 0.130056
8493.44141 0.129998
8494.89453 0.129942
8496.34766 0.129885
8497.80078 0.129829
8499.25488 0.129772
8500.70898 0.129691
8502.16309 0.129584
8503.61719 0.12947
8505.07129 0.129354
8506.52637 0.129238
8507.98145 0.129122
8509.43848 0.129006
8510.89258 0.12889
8512.34863 0.128775
8513.80469 0.128677
8515.26074 0.128579
8516.71777 0.128481
8518.17480 0.128383
8519.63184 0.128285
8521.08887 0.128187
8522.54688 0.128084
8524.00488 0.127953
8525.46289 0.127823
8526.92090 0.127692
8528.37988 0.127562
8529.83887 0.127431
8531.29785 0.127316
8532.75781 0.12721
8534.21680 0.127119
8535.67676 0.127029
8537.13672 0.126938
8538.59766 0.126847
8540.05762 0.126756
8541.51855 0.126647
8542.98047 0.126541
8544.44141 0.126436
8545.90332 0.126331
8547.36523 0.126226
8548.82715 0.126121
8550.28906 0.126016
8551.75195 0.125911
8553.21484 0.125806
8554.67773 0.125703
8556.14160 0.125599
8557.60547 0.125495
8559.06934 0.125391
8560.53320 0.125287
8561.99707 0.125182
8563.46191 0.125064
8564.92676 0.124942
8566.39160 0.12482
8567.85742 0.124697
8569.32324 0.124575
8570.78906 0.124461
8572.25488 0.124356
8573.72168 0.124261
8575.18848 0.124168
8576.65527 0.124074
8578.12207 0.12398
8579.58984 0.123886
8581.05762 0.123779
8582.52539 0.123668
8583.99316 0.123556
8585.46191 0.123445
8586.93066 0.123334
8588.39941 0.123222
8589.86816 0.123111
8591.33789 0.122999
8592.80762 0.122889
8594.27734 0.122779
8595.74707 0.12267
8597.21777 0.122561
8598.68848 0.122452
8600.15918 0.122342
8601.63086 0.122233
8603.10156 0.122132
8604.57324 0.12204
8606.04590 0.121947
8607.51758 0.121855
8608.99023 0.121762
8610.46289 0.121675
8611.93555 0.121599
8613.40918 0.121496
8614.88281 0.121381
8616.35645 0.121266
8617.83008 0.121151
8619.30371 0.121036
8620.77832 0.120912
8622.25293 0.12078
8623.72852 0.120666
8625.20312 0.120553
8626.67871 0.120441
8628.15430 0.120328
8629.63086 0.120215
8631.10645 0.120129
8632.58301 0.120051
8634.05957 0.119973
8635.53711 0.119894
8637.01367 0.119815
8638.49121 0.119736
8639.96875 0.119657
8641.44727 0.119578
8642.92578 0.1195
8644.40430 0.119426
8645.88281 0.119351
8647.36133 0.119277
8648.84082 0.119202
8650.32031 0.119127
8651.79980 0.119052
8653.28027 0.118973
8654.76074 0.118891
8656.24121 0.118809
8657.72168 0.118727
8659.20215 0.118645
8660.68359 0.118571
8662.16504 0.118505
8663.64746 0.118428
8665.12891 0.118348
8666.61133 0.118268
8668.09375 0.118188
8669.57715 0.118107
8671.05957 0.118015
8672.54297 0.117921
8674.02637 0.117858
8675.51074 0.117794
8676.99414 0.11773
8678.47852 0.117666
8679.96289 0.117601
8681.44824 0.117537
8682.93359 0.117464
8684.41895 0.117378
8685.90430 0.117291
8687.38965 0.117205
8688.87598 0.117118
8690.36230 0.117031
8691.84863 0.116944
8693.33594 0.116845
8694.82324 0.11674
8696.31055 0.116635
8697.79785 0.11653
8699.28613 0.116425
8700.77344 0.11632
8702.26172 0.116215
8703.75098 0.116149
8705.23926 0.116087
8706.72852 0.116025
8708.21777 0.115963
8709.70801 0.115901
8711.19824 0.115852
8712.68652 0.115802
8714.17871 0.115737
8715.66895 0.115671
8717.16016 0.115605
8718.65137 0.11554
8720.14258 0.115472
8721.63379 0.11539
8723.12598 0.115293
8724.61816 0.115182
8726.11035 0.11507
8727.60352 0.114958
8729.09668 0.114846
8730.58984 0.114735
8732.08301 0.114623
8733.57715 0.114532
8735.07129 0.114448
8736.56543 0.114363
8738.05957 0.114278
8739.55469 0.114193
8741.04980 0.114108
8742.54492 0.114022
8744.04004 0.113926
8745.53613 0.113831
8747.03223 0.113734
8748.52832 0.113638
8750.02441 0.113542
8751.52148 0.113446
8753.01855 0.113351
8754.51562 0.113261
8756.01367 0.113169
8757.51172 0.113078
8759.00977 0.112987
8760.50781 0.112901
8762.00586 0.112825
8763.50488 0.112773
8765.00391 0.112729
8766.50391 0.112685
8768.00293 0.11264
8769.50293 0.112596
8771.00293 0.11254
8772.50391 0.112476
8774.00391 0.112366
8775.50488 0.112256
8777.00586 0.112145
8778.50781 0.112035
8780.00977 0.111924
8781.51172 0.111813
8783.01367 0.111709
8784.51562 0.111613
8786.01855 0.111516
8787.52148 0.11142
8789.02441 0.111324
8790.52832 0.111227
8792.03223 0.11113
8793.53613 0.111056
8795.04004 0.11099
8796.54492 0.110924
8798.04980 0.110857
8799.55469 0.110791
8801.05957 0.110709
8802.56543 0.110615
8804.07129 0.110472
8805.57715 0.11033
8807.08301 0.110188
8808.58984 0.110046
8810.09668 0.109905
8811.60352 0.109778
8813.11133 0.10967
8814.61914 0.109583
8816.12695 0.109496
8817.63477 0.109408
8819.14355 0.109321
8820.65137 0.109227
8822.16016 0.109123
8823.66992 0.108999
8825.17871 0.10887
8826.68848 0.108742
8828.19824 0.108613
8829.70898 0.108484
8831.21973 0.108377
8832.72852 0.108285
8834.24121 0.108235
8835.75195 0.108185
8837.26367 0.108135
8838.77539 0.108084
8840.28711 0.108034
8841.79980 0.107983
8843.31348 0.107883
8844.82520 0.107749
8846.33789 0.107615
8847.85059 0.107481
8849.36426 0.107347
8850.87793 0.107213
8852.39258 0.107078
8853.90723 0.106994
8855.42090 0.106911
8856.93652 0.106828
8858.45117 0.106745
8859.96680 0.106662
8861.48242 0.106578
8862.99805 0.106484
8864.51367 0.106373
8866.03027 0.106262
8867.54688 0.106151
8869.06445 0.106039
8870.58105 0.105934
8872.09863 0.105837
8873.61621 0.105777
8875.13477 0.105727
8876.65234 0.105677
8878.17090 0.105626
8879.68945 0.105576
8881.20898 0.105512
8882.72754 0.105437
8884.24707 0.105324
8885.76758 0.105211
8887.28711 0.105097
8888.80762 0.104984
8890.32812 0.104871
8891.84863 0.104757
8893.37012 0.104659
8894.89160 0.104571
8896.41309 0.104483
8897.93457 0.104395
8899.45703 0.104306
8900.97852 0.104218
8902.50195 0.104129
8904.02441 0.104043
8905.54785 0.103956
8907.07129 0.103869
8908.59473 0.103782
8910.11816 0.103695
8911.64258 0.103607
8913.16699 0.103514
8914.69238 0.103414
8916.21680 0.103314
8917.74219 0.103213
8919.26758 0.103112
8920.79297 0.103012
8922.31934 0.102911
8923.84570 0.102786
8925.37207 0.102658
8926.89941 0.102531
8928.42578 0.102403
8929.95312 0.102276
8931.48047 0.102148
8933.00879 0.102041
8934.53711 0.101969
8936.06543 0.101896
8937.59375 0.101824
8939.12305 0.101751
8940.65234 0.101685
8942.18164 0.101627
8943.71094 0.101517
8945.24121 0.101395
8946.77148 0.101273
8948.30176 0.101151
8949.83203 0.101028
8951.36328 0.100892
8952.89453 0.100783
8954.42578 0.100745
8955.95801 0.100706
8957.49023 0.100667
8959.02246 0.100627
8960.55469 0.100587
8962.08691 0.100547
8963.62012 0.100424
8965.15332 0.100274
8966.68848 0.100124
8968.22168 0.099973
8969.75586 0.099823
8971.29004 0.099672
8972.82422 0.099537
8974.35938 0.099452
8975.89453 0.099367
8977.42969 0.099281
8978.96582 0.099195
8980.50195 0.099109
8982.03809 0.099023
8983.57422 0.098904
8985.11133 0.098772
8986.64844 0.09864
8988.18555 0.098508
8989.72266 0.098375
8991.26074 0.098243
8992.79883 0.098114
8994.33691 0.097997
8995.87598 0.09788
8997.41406 0.097762
8998.95410 0.097644
9000.49316 0.097528
9002.03223 0.097412
9003.57227 0.097313
9005.11230 0.097221
9006.65332 0.097129
9008.19336 0.097037
9009.73438 0.096944
9011.27637 0.096864
9012.81738 0.096782
9014.35938 0.096687
9015.90137 0.096592
9017.44336 0.096497
9018.98633 0.096402
9020.52930 0.096301
9022.07227 0.096191
9023.61523 0.096082
9025.15918 0.095972
9026.70312 0.095863
9028.24707 0.095753
9029.79102 0.095643
9031.33594 0.095541
9032.88086 0.095442
9034.42578 0.095345
9035.97168 0.095248
9037.51758 0.095152
9039.06348 0.095055
9040.60938 0.094958
9042.15625 0.09486
9043.70312 0.094761
9045.25000 0.094662
9046.79688 0.094562
9048.34473 0.094462
9049.89258 0.094362
9051.44043 0.094262
9052.98926 0.094162
9054.53711 0.094063
9056.08594 0.093963
9057.63574 0.093864
9059.18457 0.093764
9060.73438 0.093664
9062.28418 0.093564
9063.83496 0.093467
9065.38574 0.09337
9066.93555 0.093273
9068.48730 0.093175
9070.03809 0.093078
9071.58984 0.09298
9073.14160 0.092881
9074.69336 0.092781
9076.24609 0.092679
9077.79883 0.092578
9079.35156 0.092477
9080.90430 0.092384
9082.45801 0.092296
9084.01172 0.092209
9085.56543 0.092121
9087.12012 0.092034
9088.67383 0.091946
9090.22852 0.091856
9091.78418 0.091754
9093.33887 0.09165
9094.89453 0.091544
9096.45020 0.091439
9098.00684 0.091332
9099.56152 0.091226
9101.11914 0.09112
9102.67676 0.091015
9104.23340 0.090914
9105.79102 0.090814
9107.34863 0.090713
9108.90625 0.090612
9110.46484 0.090512
9112.02344 0.090411
9113.58203 0.09031
9115.14062 0.090208
9116.70020 0.090107
9118.25977 0.090005
9119.81934 0.089903
9121.37988 0.089802
9122.93945 0.089701
9124.50000 0.089602
9126.06152 0.089503
9127.62207 0.089405
9129.18359 0.089305
9130.74512 0.089206
9132.30762 0.089107
9133.86914 0.089003
9135.43164 0.088897
9136.99512 0.088792
9138.55762 0.088686
9140.12109 0.088581
9141.68457 0.088475
9143.24805 0.088368
9144.81348 0.08826
9146.37695 0.088151
9147.94141 0.088043
9149.50586 0.087934
9151.07129 0.087826
9152.63672 0.087718
9154.20215 0.087617
9155.76855 0.087517
9157.33496 0.087416
9158.90137 0.087315
9160.46777 0.087215
9162.03516 0.087114
9163.60156 0.08701
9165.16992 0.086905
9166.73730 0.086799
9168.30566 0.086694
9169.87402 0.086588
9171.44238 0.086482
9173.01172 0.086375
9174.58008 0.086264
9176.14941 0.086154
9177.71973 0.086043
9179.28906 0.085932
9180.85938 0.085828
9182.43066 0.085731
9184.00098 0.08564
9185.57227 0.085549
9187.14355 0.085458
9188.71484 0.085367
9190.28711 0.085273
9191.85840 0.085169
9193.43164 0.085061
9195.00391 0.084951
9196.57715 0.08484
9198.15039 0.08473
9199.72363 0.084619
9201.29688 0.084501
9202.87109 0.084384
9204.44531 0.084272
9206.01953 0.084159
9207.59473 0.084047
9209.16992 0.083934
9210.74512 0.083822
9212.32031 0.083709
9213.89648 0.083584
9215.47266 0.083457
9217.04883 0.083331
9218.62598 0.083203
9220.20312 0.083076
9221.78027 0.082949
9223.35742 0.082833
9224.93555 0.082725
9226.51367 0.082617
9228.09180 0.08251
9229.66992 0.082402
9231.24902 0.082298
9232.82812 0.082192
9234.40723 0.082072
9235.98730 0.081951
9237.56738 0.08183
9239.14746 0.081709
9240.72754 0.081588
9242.30859 0.081467
9243.88965 0.08135
9245.47070 0.081233
9247.05273 0.081117
9248.63379 0.081
9250.21680 0.080883
9251.79883 0.080766
9253.38086 0.080653
9254.96387 0.080543
9256.54785 0.080433
9258.13086 0.080323
9259.71484 0.080212
9261.29883 0.080102
9262.88281 0.079989
9264.46777 0.079869
9266.05176 0.079748
9267.63770 0.079627
9269.22266 0.079506
9270.80859 0.079385
9272.39453 0.079264
9273.98047 0.079152
9275.56641 0.07904
9277.15332 0.078929
9278.74023 0.078817
9280.32715 0.078706
9281.91504 0.078594
9283.50293 0.078481
9285.09082 0.078367
9286.67969 0.078253
9288.26758 0.078139
9289.85645 0.078025
9291.44629 0.077911
9293.03516 0.077795
9294.62500 0.077675
9296.21484 0.077555
9297.80469 0.077435
9299.39648 0.077314
9300.98633 0.077202
9302.57715 0.077093
9304.16895 0.076982
9305.76074 0.07687
9307.35254 0.076758
9308.94434 0.076645
9310.53711 0.076529
9312.12988 0.076404
9313.72266 0.076286
9315.31543 0.076171
9316.90918 0.076055
9318.50293 0.075939
9320.09668 0.075823
9321.69141 0.075707
9323.28613 0.07559
9324.88086 0.075472
9326.47559 0.075355
9328.07129 0.075237
9329.66699 0.075119
9331.26270 0.075001
9332.85938 0.074881
9334.45508 0.074756
9336.05273 0.07463
9337.64941 0.074505
9339.24707 0.074379
9340.84473 0.074254
9342.44238 0.074128
9344.04004 0.074004
9345.63867 0.07388
9347.23730 0.073756
9348.83594 0.073632
9350.43555 0.073507
9352.03516 0.073383
9353.63477 0.073259
9355.23535 0.073136
9356.83496 0.073012
9358.43555 0.072889
9360.03711 0.072765
9361.63770 0.072641
9363.23926 0.072517
9364.84082 0.072392
9366.44336 0.072266
9368.04492 0.072141
9369.64746 0.072015
9371.25000 0.07189
9372.85352 0.071764
9374.45703 0.071641
9376.06055 0.071519
9377.66406 0.071396
9379.26855 0.071273
9380.87305 0.071149
9382.47754 0.071026
9384.08301 0.0709
9385.68652 0.070775
9387.29395 0.070648
9388.89941 0.070522
9390.50586 0.070396
9392.11133 0.07027
9393.71875 0.070147
9395.32520 0.070026
9396.93262 0.069905
9398.54004 0.069784
9400.14746 0.069662
9401.75586 0.069528
9403.36426 0.06939
9404.97266 0.069247
9406.58105 0.069103
9408.19043 0.06896
9409.79980 0.068817
9411.40918 0.068673
9413.01953 0.068531
9414.62988 0.068394
9416.24023 0.068257
9417.85059 0.06812
9419.46191 0.067983
9421.07324 0.067846
9422.68457 0.067708
9424.29688 0.067566
9425.90918 0.067424
9427.52148 0.067281
9429.13379 0.067139
9430.74707 0.067
9432.36035 0.066864
9433.97363 0.066731
9435.58789 0.066598
9437.20117 0.066464
9438.81543 0.066331
9440.43066 0.066197
9442.04492 0.066063
9443.66016 0.065928
9445.27637 0.065792
9446.89160 0.065655
9448.50781 0.065519
9450.12402 0.065382
9451.74023 0.065245
9453.35742 0.065108
9454.97461 0.064971
9456.59180 0.064834
9458.20996 0.064696
9459.82715 0.064559
9461.44531 0.064421
9463.06445 0.064284
9464.68262 0.06415
9466.30176 0.064015
9467.92090 0.063881
9469.54102 0.063746
9471.16113 0.063611
9472.78125 0.063476
9474.40137 0.063337
9476.02246 0.063199
9477.64355 0.06306
9479.26465 0.062921
9480.88574 0.062782
9482.50781 0.062643
9484.12988 0.062504
9485.75195 0.062366
9487.37500 0.062227
9488.99805 0.062088
9490.62109 0.061949
9492.24414 0.06181
9493.86816 0.061674
9495.49219 0.061538
9497.11621 0.061403
9498.74121 0.061267
9500.36621 0.061138
9501.99121 0.061036
9503.61719 0.06093
9505.24219 0.060823
9506.86816 0.060716
9508.49512 0.060609
9510.12109 0.060501
9511.74805 0.060394
9513.37500 0.060286
9515.00293 0.06018
9516.62988 0.060073
9518.25781 0.059966
9519.88672 0.059858
9521.51465 0.059751
9523.14355 0.059643
9524.77246 0.059534
9526.40234 0.059425
9528.03125 0.059316
9529.66113 0.059207
9531.29199 0.059097
9532.92188 0.058989
9534.55273 0.058885
9536.18359 0.058782
9537.81543 0.058678
9539.44629 0.058574
9541.07812 0.05847
9542.71094 0.058365
9544.34277 0.058254
9545.97559 0.058142
9547.60840 0.05803
9549.24219 0.057918
9550.87500 0.057805
9552.50879 0.057693
9554.14355 0.057587
9555.77734 0.057481
9557.41211 0.057375
9559.04688 0.057269
9560.68262 0.057162
9562.31738 0.057056
9563.95312 0.056947
9565.58984 0.056838
9567.22559 0.056728
9568.86230 0.056619
9570.49902 0.056509
9572.13672 0.0564
9573.77344 0.056287
9575.41113 0.056173
9577.04980 0.056059
9578.68652 0.055944
9580.32617 0.05583
9581.96484 0.055716
9583.60352 0.055605
9585.24414 0.055497
9586.88379 0.055388
9588.52344 0.05528
9590.16309 0.055171
9591.80371 0.055062
9593.44531 0.054952
9595.08594 0.05484
9596.72754 0.054729
9598.36914 0.054617
9600.01074 0.054505
9601.65332 0.054399
9603.29590 0.054292
9604.93848 0.054184
9606.58105 0.054077
9608.22461 0.053969
9609.86816 0.053861
9611.51172 0.053736
9613.15625 0.05361
9614.80078 0.053486
9616.44531 0.053362
9618.09082 0.053237
9619.73535 0.053113
9621.38086 0.052996
9623.02734 0.05288
9624.67285 0.052761
9626.31934 0.052643
9627.96680 0.052524
9629.61328 0.052405
9631.26074 0.052286
9632.90820 0.052168
9634.55566 0.052055
9636.20410 0.051941
9637.85254 0.051828
9639.50098 0.051715
9641.15039 0.051601
9642.79980 0.051486
9644.44922 0.051361
9646.09863 0.051235
9647.74902 0.05111
9649.39941 0.050984
9651.04980 0.050858
9652.70117 0.050733
9654.35156 0.050616
9656.00391 0.0505
9657.65527 0.050383
9659.30762 0.050266
9660.95996 0.050149
9662.61230 0.050032
9664.26562 0.049914
9665.91797 0.049796
9667.57227 0.049677
9669.22559 0.049559
9670.87988 0.04944
9672.53418 0.049321
9674.18848 0.049198
9675.84375 0.049075
9677.49902 0.048952
9679.15430 0.048828
9680.80957 0.048705
9682.46582 0.048581
9684.12207 0.048461
9685.77832 0.04834
9687.43555 0.04822
9689.09277 0.048099
9690.75000 0.047978
9692.40820 0.047857
9694.06543 0.047736
9695.72461 0.047614
9697.38281 0.047493
9699.04199 0.047371
9700.70117 0.047249
9702.36035 0.047127
9704.01953 0.047007
9705.67969 0.046888
9707.33984 0.046769
9709.00098 0.046649
9710.66113 0.046529
9712.32227 0.046409
9713.98438 0.046286
9715.64648 0.046162
9717.30762 0.046037
9718.96973 0.045913
9720.63281 0.045788
9722.29492 0.045663
9723.95801 0.045539
9725.62207 0.045415
9727.28516 0.04529
9728.94922 0.045166
9730.61426 0.045041
9732.27832 0.044916
9733.94336 0.044793
9735.60840 0.044671
9737.27344 0.044549
9738.93945 0.044426
9740.60547 0.044303
9742.27148 0.04418
9743.93848 0.044057
9745.60352 0.043933
9747.27246 0.043809
9748.93945 0.043685
9750.60742 0.04356
9752.27539 0.043436
9753.94336 0.04331
9755.61133 0.043184
9757.28027 0.043057
9758.94922 0.04293
9760.61914 0.042804
9762.28906 0.042677
9763.95898 0.042551
9765.62891 0.042425
9767.29980 0.042299
9768.97070 0.042173
9770.64160 0.042046
9772.31348 0.04192
9773.98438 0.041793
9775.65625 0.041666
9777.32910 0.041539
9779.00098 0.041412
9780.67383 0.041284
9782.34668 0.041157
9784.02148 0.041031
9785.69434 0.040905
9787.36816 0.04078
9789.04199 0.040654
9790.71680 0.040528
9792.39160 0.040402
9794.06641 0.040275
9795.74219 0.040148
9797.41797 0.040021
9799.09375 0.039893
9800.77148 0.039763
9802.44629 0.039632
9804.12305 0.0395
9805.80078 0.039368
9807.47754 0.039236
9809.15527 0.039104
9810.83398 0.038972
9812.51172 0.03884
9814.19043 0.038708
9815.86914 0.038575
9817.54883 0.038442
9819.22754 0.038309
9820.90723 0.038176
9822.58789 0.038043
9824.26758 0.037911
9825.94824 0.037778
9827.62891 0.037645
9829.31055 0.037512
9830.99219 0.037381
9832.67383 0.03725
9834.35547 0.03712
9836.03809 0.036989
9837.72070 0.036857
9839.40332 0.036726
9841.08594 0.036595
9842.76953 0.036464
9844.45312 0.036331
9846.13770 0.036199
9847.82227 0.036067
9849.50684 0.035934
9851.19141 0.035802
9852.87598 0.035669
9854.56152 0.035539
9856.24805 0.035409
9857.93359 0.035278
9859.62012 0.035148
9861.30664 0.035017
9862.99316 0.034886
9864.68066 0.034753
9866.36816 0.03462
9868.05566 0.034486
9869.74414 0.034353
9871.43262 0.034219
9873.12109 0.034086
9874.80957 0.033955
9876.49902 0.033824
9878.18848 0.033693
9879.87793 0.033561
9881.56836 0.03343
9883.25879 0.033297
9884.94922 0.033162
9886.64062 0.033027
9888.33203 0.032892
9890.02344 0.032757
9891.71484 0.032622
9893.40723 0.032488
9895.09961 0.032355
9896.79199 0.032222
9898.48535 0.032089
9900.17871 0.031956
9901.87207 0.031817
9903.56543 0.031677
9905.25977 0.031536
9906.95410 0.031395
9908.64844 0.031254
9910.34375 0.031114
9912.03906 0.030979
9913.73438 0.030843
9915.43066 0.030707
9917.12695 0.030571
9918.82324 0.030435
9920.51953 0.030299
9922.21680 0.030163
9923.91406 0.030027
9925.61230 0.029892
9927.30957 0.029757
9929.00781 0.029622
9930.70605 0.029487
9932.40527 0.029352
9934.10352 0.029215
9935.80371 0.029079
9937.50293 0.028942
9939.20312 0.028805
9940.90332 0.028668
9942.60352 0.028531
9944.30469 0.028396
9946.00586 0.028262
9947.70703 0.028127
9949.40918 0.027992
9951.11035 0.027858
9952.81348 0.027722
9954.51562 0.027585
9956.21875 0.027448
9957.92188 0.02731
9959.62500 0.027172
9961.32910 0.027035
9963.03320 0.026897
9964.73730 0.026761
9966.44141 0.026625
9968.14648 0.026488
9969.85156 0.026351
9971.55762 0.026215
9973.26270 0.026078
9974.96875 0.02594
9976.67480 0.025803
9978.38184 0.025665
9980.08887 0.025527
9981.79590 0.025389
9983.50391 0.025251
9985.21094 0.025113
9986.91992 0.024975
9988.62793 0.024837
9990.33691 0.024699
9992.04590 0.024561
9993.75488 0.024423
9995.46387 0.024285
9997.17383 0.024146
9998.88379 0.024008
10000.58984 0.023886
10002.30957 0.023794
10004.01953 0.023702
10005.73047 0.023609
10007.44043 0.023517
10009.15039 0.023424
10010.86035 0.023332
10012.58008 0.023239
10014.29004 0.023145
10016.00000 0.023051
10017.70996 0.022957
10019.42969 0.022863
10021.13965 0.022768
10022.86035 0.022674
10024.57031 0.022581
10026.29004 0.022488
10028.00000 0.022395
10029.71973 0.022302
10031.42969 0.022205
10033.15039 0.022108
10034.87012 0.022012
10036.58008 0.021916
10038.29980 0.021821
10040.01953 0.021725
10041.73047 0.021633
10043.45020 0.021541
10045.16992 0.021449
10046.88965 0.021357
10048.61035 0.021265
10050.32031 0.021173
10052.04004 0.021081
10053.75977 0.020987
10055.48047 0.020893
10057.20020 0.020798
10058.91992 0.020704
10060.63965 0.020609
10062.37012 0.020515
10064.08984 0.020422
10065.80957 0.02033
10067.53027 0.020237
10069.25000 0.020145
10070.96973 0.020053
10072.70020 0.01996
10074.41992 0.019867
10076.13965 0.019775
10077.87012 0.019682
10079.58984 0.019589
10081.32031 0.019496
10083.04004 0.019403
10084.76953 0.019309
10086.49023 0.019215
10088.21973 0.019121
10089.94043 0.019027
10091.66992 0.018932
10093.38965 0.018839
10095.12012 0.018745
10096.84961 0.018652
10098.57031 0.018558
10100.29980 0.018465
10102.03027 0.018371
10103.75977 0.018277
10105.49023 0.018183
10107.20996 0.018089
10108.94043 0.017995
10110.66992 0.017901
10112.40039 0.017806
10114.12988 0.017713
10115.86035 0.01762
10117.58984 0.017526
10119.32031 0.017433
10121.04980 0.017338
10122.79004 0.017241
10124.51953 0.017145
10126.25000 0.017049
10127.98047 0.016953
10129.70996 0.016856
10131.45020 0.016763
10133.17969 0.01667
10134.91016 0.016578
10136.65039 0.016486
10138.37988 0.016393
10140.12012 0.016301
10141.84961 0.016209
10143.58008 0.016115
10145.32031 0.016021
10147.05957 0.015926
10148.79004 0.015831
10150.53027 0.015737
10152.25977 0.015642
10154.00000 0.015548
10155.74023 0.015454
10157.46973 0.015361
10159.20996 0.015267
10160.95020 0.015173
10162.69043 0.015079
10164.42969 0.014986
10166.16992 0.014893
10167.90039 0.0148
10169.63965 0.014707
10171.37988 0.014614
10173.12012 0.014521
10174.86035 0.014426
10176.59961 0.014332
10178.33984 0.014237
10180.08984 0.014143
10181.83008 0.014048
10183.57031 0.013954
10185.30957 0.013861
10187.04980 0.013768
10188.79980 0.013674
10190.54004 0.013581
10192.28027 0.013488
10194.03027 0.013393
10195.76953 0.013299
10197.50977 0.013205
10199.25977 0.01311
10201.00000 0.013034
10202.75000 0.012971
10204.49023 0.012909
10206.24023 0.012848
10207.99023 0.012786
10209.73047 0.012725
10211.48047 0.012665
10213.21973 0.012606
10214.96973 0.012545
10216.71973 0.012484
10218.46973 0.012424
10220.20996 0.012363
10221.95996 0.012302
10223.70996 0.012242
10225.45996 0.012182
10227.20996 0.012122
10228.95996 0.012062
10230.70996 0.012002
10232.45996 0.011942
10234.20996 0.011882
10235.95996 0.011822
10237.70996 0.011763
10239.45996 0.011703
10241.20996 0.011643
10242.96973 0.011584
10244.71973 0.011524
10246.46973 0.011464
10248.21973 0.011404
10249.98047 0.011344
10251.73047 0.011283
10253.48047 0.011223
10255.24023 0.011164
10256.99023 0.011104
10258.75000 0.011044
10260.50000 0.010984
10262.25977 0.010924
10264.00977 0.010864
10265.76953 0.010804
10267.51953 0.010744
10269.28027 0.010684
10271.04004 0.010622
10272.79004 0.01056
10274.54980 0.010498
10276.30957 0.010435
10278.07031 0.010373
10279.82031 0.010311
10281.58008 0.01025
10283.33984 0.01019
10285.09961 0.010131
10286.86035 0.010071
10288.62012 0.010012
10290.37988 0.009952
10292.13965 0.009893
10293.90039 0.009832
10295.66016 0.009771
10297.41992 0.00971
10299.17969 0.009649
10300.95020 0.009588
10302.70996 0.009528
10304.46973 0.009468
10306.23047 0.009409
10308.00000 0.00935
10309.75977 0.009291
10311.51953 0.009232
10313.29004 0.009173
10315.04980 0.009113
10316.82031 0.009054
10318.58008 0.008994
10320.34961 0.008934
10322.11035 0.008874
10323.87988 0.008814
10325.63965 0.008754
10327.41016 0.008693
10329.17969 0.008633
10330.94043 0.008572
10332.70996 0.008512
10334.48047 0.008452
10336.25000 0.008392
10338.00977 0.008332
10339.78027 0.008272
10341.54980 0.00821
10343.32031 0.008149
10345.08984 0.008087
10346.86035 0.008026
10348.62988 0.007965
10350.40039 0.007904
10352.16992 0.007844
10353.94043 0.007784
10355.70996 0.007724
10357.48047 0.007664
10359.25000 0.007604
10361.03027 0.007544
10362.79980 0.007484
10364.57031 0.007425
10366.33984 0.007366
10368.12012 0.007307
10369.88965 0.007247
10371.66992 0.007188
10373.44043 0.007129
10375.20996 0.007068
10376.99023 0.007008
10378.75977 0.006948
10380.54004 0.006887
10382.32031 0.006827
10384.08984 0.006767
10385.87012 0.006707
10387.63965 0.006647
10389.41992 0.006587
10391.20020 0.006527
10392.98047 0.006468
10394.75000 0.006408
10396.53027 0.006349
10398.30957 0.006289
10400.08984 0.006231
10401.87012 0.006199
10403.65039 0.006168
10405.42969 0.006136
10407.20996 0.006104
10408.99023 0.006073
10410.76953 0.006042
10412.54980 0.006011
10414.33008 0.005981
10416.11035 0.00595
10417.88965 0.00592
10419.67969 0.005889
10421.45996 0.005858
10423.24023 0.005828
10425.01953 0.005797
10426.80957 0.005767
10428.58984 0.005736
10430.37988 0.005706
10432.16016 0.005675
10433.94043 0.005645
10435.73047 0.005615
10437.50977 0.005585
10439.29980 0.005556
10441.08008 0.005526
10442.87012 0.005496
10444.66016 0.005465
10446.44043 0.005435
10448.23047 0.005404
10450.01953 0.005373
10451.80957 0.005342
10453.58984 0.00531
10455.37988 0.005279
10457.16992 0.005247
10458.95996 0.005216
10460.75000 0.005185
10462.54004 0.005154
10464.33008 0.005125
10466.12012 0.005095
10467.91016 0.005065
10469.70020 0.005035
10471.49023 0.005005
10473.28027 0.004976
10475.07031 0.004945
10476.86035 0.004915
10478.66016 0.004884
10480.45020 0.004854
10482.24023 0.004824
10484.04004 0.004793
10485.83008 0.004763
10487.62012 0.004733
10489.41992 0.004703
10491.20996 0.004673
10493.00977 0.004642
10494.79980 0.004612
10496.59961 0.004582
10498.38965 0.004552
10500.19043 0.004522
10501.98047 0.00449
10503.78027 0.004459
10505.58008 0.004429
10507.37012 0.004398
10509.16992 0.004367
10510.96973 0.004337
10512.76953 0.004307
10514.57031 0.004276
10516.36035 0.004246
10518.16016 0.004216
10519.95996 0.004186
10521.75977 0.004155
10523.55957 0.004125
10525.36035 0.004095
10527.16016 0.004065
10528.95996 0.004035
10530.75977 0.004006
10532.57031 0.003976
10534.37012 0.003945
10536.16992 0.003915
10537.96973 0.003885
10539.76953 0.003854
10541.58008 0.003824
10543.37988 0.003794
10545.17969 0.003764
10546.99023 0.003734
10548.79004 0.003705
10550.59961 0.003675
10552.40039 0.003644
10554.20996 0.003613
10556.00977 0.003583
10557.82031 0.003552
10559.62012 0.003521
10561.42969 0.003491
10563.24023 0.003461
10565.04004 0.003431
10566.84961 0.003401
10568.66016 0.003371
10570.46973 0.003341
10572.26953 0.003311
10574.08008 0.003281
10575.88965 0.003251
10577.70020 0.003222
10579.50977 0.003192
10581.32031 0.003162
10583.12988 0.003132
10584.94043 0.003102
10586.75000 0.003072
10588.55957 0.003042
10590.37012 0.003012
10592.19043 0.002982
10594.00000 0.002953
10595.80957 0.002923
10597.62012 0.002893
10599.42969 0.002864
10601.25000 0.002846
10603.05957 0.002833
10604.87012 0.00282
10606.69043 0.002808
10608.50000 0.002795
10610.32031 0.002782
10612.12988 0.00277
10613.95020 0.002758
10615.75977 0.002747
10617.58008 0.002735
10619.40039 0.002723
10621.20996 0.002712
10623.03027 0.0027
10624.84961 0.002688
10626.66992 0.002676
10628.48047 0.002664
10630.29980 0.002652
10632.12012 0.002641
10633.94043 0.002629
10635.75977 0.002616
10637.58008 0.002604
10639.40039 0.002592
10641.21973 0.002579
10643.04004 0.002567
10644.86035 0.002554
10646.67969 0.002542
10648.50000 0.00253
10650.32031 0.002517
10652.13965 0.002505
10653.95996 0.002494
10655.79004 0.002482
10657.61035 0.00247
10659.42969 0.002458
10661.25977 0.002446
10663.08008 0.002434
10664.90039 0.002422
10666.73047 0.002411
10668.54980 0.002399
10670.37988 0.002387
10672.20020 0.002376
10674.03027 0.002364
10675.86035 0.002352
10677.67969 0.00234
10679.50977 0.002328
10681.33008 0.002315
10683.16016 0.002303
10684.99023 0.002292
10686.82031 0.00228
10688.65039 0.002268
10690.46973 0.002256
10692.29980 0.002244
10694.12988 0.002232
10695.95996 0.002219
10697.79004 0.002207
10699.62012 0.002195
10701.45020 0.002183
10703.28027 0.002171
10705.11035 0.00216
10706.94043 0.002148
10708.78027 0.002136
10710.61035 0.002124
10712.44043 0.002112
10714.26953 0.0021
10716.09961 0.002089
10717.94043 0.002077
10719.76953 0.002065
10721.59961 0.002053
10723.44043 0.002041
10725.26953 0.002029
10727.11035 0.002018
10728.94043 0.002006
10730.78027 0.001994
10732.61035 0.001982
10734.45020 0.00197
10736.29004 0.001958
10738.12012 0.001945
10739.95996 0.001933
10741.79980 0.001922
10743.62988 0.00191
10745.46973 0.001898
10747.30957 0.001886
10749.15039 0.001875
10750.99023 0.001863
10752.83008 0.001851
10754.66992 0.001839
10756.50977 0.001828
10758.34961 0.001816
10760.19043 0.001805
10762.03027 0.001793
10763.87012 0.001781
10765.70996 0.00177
10767.54980 0.001758
10769.38965 0.001746
10771.23047 0.001734
10773.08008 0.001722
10774.91992 0.00171
10776.75977 0.001698
10778.61035 0.001686
10780.45020 0.001674
10782.29004 0.001662
10784.13965 0.00165
10785.98047 0.001639
10787.83008 0.001627
10789.66992 0.001616
10791.51953 0.001604
10793.37012 0.001593
10795.20996 0.001581
10797.05957 0.001569
10798.91016 0.001558
10800.75000 0.001547
10802.59961 0.001538
10804.45020 0.001529
10806.29980 0.001521
10808.15039 0.001512
10810.00000 0.001503
10811.83984 0.001494
10813.69043 0.001485
10815.54004 0.001475
10817.38965 0.001466
10819.24023 0.001457
10821.08984 0.001448
10822.95020 0.001439
10824.79980 0.00143
10826.65039 0.001421
10828.50000 0.001412
10830.34961 0.001403
10832.20996 0.001394
10834.05957 0.001386
10835.91016 0.001377
10837.76953 0.001368
10839.62012 0.001359
10841.46973 0.00135
10843.33008 0.001341
10845.17969 0.001332
10847.04004 0.001323
10848.88965 0.001314
10850.75000 0.001305
10852.61035 0.001296
10854.45996 0.001287
10856.32031 0.001278
10858.17969 0.00127
10860.03027 0.001261
10861.88965 0.001252
10863.75000 0.001243
10865.61035 0.001234
10867.46973 0.001225
10869.33008 0.001216
10871.17969 0.001208
10873.04004 0.001199
10874.90039 0.00119
10876.75977 0.001181
10878.62988 0.001173
10880.49023 0.001164
10882.34961 0.001155
10884.20996 0.001146
10886.07031 0.001137
10887.92969 0.001128
10889.79980 0.001119
10891.66016 0.00111
10893.51953 0.001102
10895.37988 0.001093
10897.25000 0.001084
10899.11035 0.001075
10900.98047 0.001067
10902.83984 0.001058
10904.70996 0.001049
10906.57031 0.001041
10908.44043 0.001032
10910.29980 0.001023
10912.16992 0.001015
10914.04004 0.001006
10915.90039 0.000997
10917.76953 0.000988
10919.63965 0.00098
10921.50977 0.000971
10923.37988 0.000962
10925.24023 0.000953
10927.11035 0.000944
10928.98047 0.000935
10930.84961 0.000926
10932.71973 0.000918
10934.58984 0.000909
10936.45996 0.0009
10938.33008 0.000892
10940.20020 0.000883
10942.08008 0.000874
10943.95020 0.000866
10945.82031 0.000857
10947.69043 0.000848
10949.55957 0.00084
10951.44043 0.000831
10953.30957 0.000822
10955.17969 0.000813
10957.05957 0.000805
10958.92969 0.000796
10960.80957 0.000787
10962.67969 0.000778
10964.55957 0.00077
10966.42969 0.000761
10968.30957 0.000753
10970.19043 0.000744
10972.05957 0.000736
10973.94043 0.000727
10975.82031 0.000718
10977.69043 0.00071
10979.57031 0.000701
10981.45020 0.000692
10983.33008 0.000684
10985.20996 0.000675
10987.08984 0.000666
10988.96973 0.000658
10990.84961 0.000649
10992.73047 0.00064
10994.61035 0.000632
10996.49023 0.000623
10998.37012 0.000615
11000.25000 0.000606
11002.12988 0.000601
12102.34277 0.0
