# %ECSV 0.9
# ---
# datatype:
# - {name: wavelength, unit: Angstrom, datatype: float32}
# - {name: response, datatype: float32}
# meta: !!omap
# - {band_name: Si2}
# - {group_name: CanariCam}
wavelength response
70524.00000 0.0
78360.00000 0.004036
78370.00000 0.004079
78380.00000 0.004123
78390.00000 0.004167
78400.00000 0.004212
78410.00000 0.004257
78420.00000 0.004303
78430.00000 0.00435
78440.00000 0.004398
78450.00000 0.004446
78460.00000 0.004495
78470.00000 0.004546
78480.00000 0.004598
78490.00000 0.004651
78500.00000 0.004706
78510.00000 0.004763
78520.00000 0.004821
78530.00000 0.004881
78540.00000 0.004943
78550.00000 0.005006
78560.00000 0.00507
78570.00000 0.005137
78580.00000 0.005205
78590.00000 0.005274
78600.00000 0.005345
78610.00000 0.005418
78620.00000 0.005492
78630.00000 0.005568
78640.00000 0.005646
78650.00000 0.005725
78660.00000 0.005805
78670.00000 0.005887
78680.00000 0.005969
78690.00000 0.006052
78700.00000 0.006136
78710.00000 0.006222
78720.00000 0.006308
78730.00000 0.006395
78740.00000 0.006483
78750.00000 0.006573
78760.00000 0.006663
78770.00000 0.006754
78780.00000 0.006846
78790.00000 0.006939
78800.00000 0.007034
78810.00000 0.007129
78820.00000 0.007224
78830.00000 0.007321
78840.00000 0.007419
78850.00000 0.007518
78860.00000 0.007618
78870.00000 0.00772
78880.00000 0.007824
78890.00000 0.007929
78900.00000 0.008035
78910.00000 0.008142
78920.00000 0.008251
78930.00000 0.008362
78940.00000 0.008474
78950.00000 0.008586
78960.00000 0.008701
78970.00000 0.008817
78980.00000 0.008934
78990.00000 0.009054
79000.00000 0.009175
79010.00000 0.009298
79020.00000 0.009423
79030.00000 0.009549
79040.00000 0.009678
79050.00000 0.009808
79060.00000 0.00994
79070.00000 0.010073
79080.00000 0.010208
79090.00000 0.010345
79100.00000 0.010485
79110.00000 0.010627
79120.00000 0.010773
79130.00000 0.01092
79140.00000 0.01107
79150.00000 0.011223
79160.00000 0.011378
79170.00000 0.011538
79180.00000 0.0117
79190.00000 0.011866
79200.00000 0.012035
79210.00000 0.012207
79220.00000 0.012382
79230.00000 0.012562
79240.00000 0.012745
79250.00000 0.012932
79260.00000 0.013123
79270.00000 0.013318
79280.00000 0.013516
79290.00000 0.013718
79300.00000 0.013923
79310.00000 0.014131
79320.00000 0.014343
79330.00000 0.014559
79340.00000 0.014778
79350.00000 0.015
79360.00000 0.015225
79370.00000 0.015453
79380.00000 0.015683
79390.00000 0.015916
79400.00000 0.016153
79410.00000 0.016392
79420.00000 0.016634
79430.00000 0.016879
79440.00000 0.017127
79450.00000 0.017377
79460.00000 0.01763
79470.00000 0.017887
79480.00000 0.018147
79490.00000 0.01841
79500.00000 0.018677
79510.00000 0.018946
79520.00000 0.019219
79530.00000 0.019496
79540.00000 0.019777
79550.00000 0.020063
79560.00000 0.020355
79570.00000 0.020651
79580.00000 0.020951
79590.00000 0.021257
79600.00000 0.021568
79610.00000 0.021884
79620.00000 0.022206
79630.00000 0.022534
79640.00000 0.022866
79650.00000 0.023204
79660.00000 0.023548
79670.00000 0.023898
79680.00000 0.024256
79690.00000 0.02462
79700.00000 0.024991
79710.00000 0.025368
79720.00000 0.025752
79730.00000 0.026142
79740.00000 0.026538
79750.00000 0.02694
79760.00000 0.027348
79770.00000 0.027761
79780.00000 0.028181
79790.00000 0.028608
79800.00000 0.029043
79810.00000 0.029485
79820.00000 0.029935
79830.00000 0.030392
79840.00000 0.030856
79850.00000 0.031327
79860.00000 0.031806
79870.00000 0.032291
79880.00000 0.032784
79890.00000 0.033281
79900.00000 0.033786
79910.00000 0.034298
79920.00000 0.034819
79930.00000 0.03535
79940.00000 0.035891
79950.00000 0.036441
79960.00000 0.037001
79970.00000 0.03757
79980.00000 0.038147
79990.00000 0.038734
80000.00000 0.03933
80010.00000 0.039934
80020.00000 0.040546
80030.00000 0.041166
80040.00000 0.041797
80050.00000 0.042439
80060.00000 0.043093
80070.00000 0.043761
80080.00000 0.044441
80090.00000 0.045133
80100.00000 0.045837
80110.00000 0.046552
80120.00000 0.047278
80130.00000 0.048016
80140.00000 0.048763
80150.00000 0.04952
80160.00000 0.050288
80170.00000 0.05107
80180.00000 0.051866
80190.00000 0.052678
80200.00000 0.053507
80210.00000 0.05435
80220.00000 0.055209
80230.00000 0.056081
80240.00000 0.056969
80250.00000 0.05787
80260.00000 0.058785
80270.00000 0.059713
80280.00000 0.060653
80290.00000 0.061607
80300.00000 0.062578
80310.00000 0.063567
80320.00000 0.064576
80330.00000 0.065604
80340.00000 0.06665
80350.00000 0.067714
80360.00000 0.068796
80370.00000 0.069895
80380.00000 0.071012
80390.00000 0.072145
80400.00000 0.073294
80410.00000 0.074458
80420.00000 0.07564
80430.00000 0.076842
80440.00000 0.078065
80450.00000 0.079312
80460.00000 0.080582
80470.00000 0.081873
80480.00000 0.083186
80490.00000 0.084519
80500.00000 0.085874
80510.00000 0.08725
80520.00000 0.088646
80530.00000 0.090061
80540.00000 0.091495
80550.00000 0.092951
80560.00000 0.09443
80570.00000 0.095935
80580.00000 0.097465
80590.00000 0.099022
80600.00000 0.100604
80610.00000 0.10221
80620.00000 0.103841
80630.00000 0.105496
80640.00000 0.107177
80650.00000 0.108882
80660.00000 0.11061
80670.00000 0.112361
80680.00000 0.114138
80690.00000 0.115941
80700.00000 0.117774
80710.00000 0.119637
80720.00000 0.12153
80730.00000 0.123452
80740.00000 0.125402
80750.00000 0.127381
80760.00000 0.129388
80770.00000 0.131426
80780.00000 0.133492
80790.00000 0.135586
80800.00000 0.137707
80810.00000 0.139858
80820.00000 0.142041
80830.00000 0.144255
80840.00000 0.146504
80850.00000 0.148786
80860.00000 0.151099
80870.00000 0.153444
80880.00000 0.155822
80890.00000 0.158234
80900.00000 0.160681
80910.00000 0.163162
80920.00000 0.165676
80930.00000 0.168223
80940.00000 0.170804
80950.00000 0.173421
80960.00000 0.176077
80970.00000 0.178772
80980.00000 0.181507
80990.00000 0.184279
81000.00000 0.187089
81010.00000 0.189937
81020.00000 0.192824
81030.00000 0.195751
81040.00000 0.198717
81050.00000 0.201723
81060.00000 0.204767
81070.00000 0.207851
81080.00000 0.210974
81090.00000 0.214136
81100.00000 0.217337
81110.00000 0.220578
81120.00000 0.223859
81130.00000 0.227179
81140.00000 0.230538
81150.00000 0.233934
81160.00000 0.237367
81170.00000 0.240836
81180.00000 0.244342
81190.00000 0.247887
81200.00000 0.251468
81210.00000 0.255085
81220.00000 0.258737
81230.00000 0.262423
81240.00000 0.266142
81250.00000 0.269898
81260.00000 0.273689
81270.00000 0.277514
81280.00000 0.281373
81290.00000 0.285263
81300.00000 0.289183
81310.00000 0.293136
81320.00000 0.297121
81330.00000 0.301139
81340.00000 0.305187
81350.00000 0.309266
81360.00000 0.313375
81370.00000 0.317512
81380.00000 0.321679
81390.00000 0.325876
81400.00000 0.330104
81410.00000 0.33436
81420.00000 0.338644
81430.00000 0.342954
81440.00000 0.347292
81450.00000 0.35166
81460.00000 0.356056
81470.00000 0.36048
81480.00000 0.364928
81490.00000 0.3694
81500.00000 0.373894
81510.00000 0.378414
81520.00000 0.382961
81530.00000 0.387534
81540.00000 0.392127
81550.00000 0.396738
81560.00000 0.401364
81570.00000 0.406002
81580.00000 0.410661
81590.00000 0.415341
81600.00000 0.420036
81610.00000 0.424742
81620.00000 0.429454
81630.00000 0.434167
81640.00000 0.438884
81650.00000 0.443613
81660.00000 0.448351
81670.00000 0.453092
81680.00000 0.457831
81690.00000 0.462563
81700.00000 0.467284
81710.00000 0.471998
81720.00000 0.476712
81730.00000 0.481422
81740.00000 0.486122
81750.00000 0.49081
81760.00000 0.495481
81770.00000 0.500133
81780.00000 0.504774
81790.00000 0.509404
81800.00000 0.514019
81810.00000 0.518616
81820.00000 0.523191
81830.00000 0.52774
81840.00000 0.532264
81850.00000 0.536769
81860.00000 0.541253
81870.00000 0.545713
81880.00000 0.550148
81890.00000 0.554554
81900.00000 0.558929
81910.00000 0.563277
81920.00000 0.567601
81930.00000 0.571898
81940.00000 0.576165
81950.00000 0.580398
81960.00000 0.584594
81970.00000 0.588751
81980.00000 0.592873
81990.00000 0.596962
82000.00000 0.601016
82010.00000 0.605033
82020.00000 0.60901
82030.00000 0.612946
82040.00000 0.616839
82050.00000 0.620696
82060.00000 0.624515
82070.00000 0.628293
82080.00000 0.632027
82090.00000 0.635716
82100.00000 0.639355
82110.00000 0.642945
82120.00000 0.64649
82130.00000 0.64999
82140.00000 0.653444
82150.00000 0.656849
82160.00000 0.660207
82170.00000 0.663514
82180.00000 0.666775
82190.00000 0.669989
82200.00000 0.673155
82210.00000 0.676272
82220.00000 0.679338
82230.00000 0.682352
82240.00000 0.685313
82250.00000 0.688221
82260.00000 0.691077
82270.00000 0.693881
82280.00000 0.696636
82290.00000 0.699341
82300.00000 0.701997
82310.00000 0.704605
82320.00000 0.707164
82330.00000 0.709673
82340.00000 0.712132
82350.00000 0.714544
82360.00000 0.716907
82370.00000 0.719223
82380.00000 0.72149
82390.00000 0.723706
82400.00000 0.725873
82410.00000 0.727994
82420.00000 0.730069
82430.00000 0.732103
82440.00000 0.734096
82450.00000 0.736047
82460.00000 0.737954
82470.00000 0.739818
82480.00000 0.741639
82490.00000 0.74342
82500.00000 0.745161
82510.00000 0.746863
82520.00000 0.748522
82530.00000 0.750139
82540.00000 0.751715
82550.00000 0.753253
82560.00000 0.754755
82570.00000 0.756224
82580.00000 0.75766
82590.00000 0.75906
82600.00000 0.760423
82610.00000 0.761752
82620.00000 0.763047
82630.00000 0.76431
82640.00000 0.765544
82650.00000 0.766748
82660.00000 0.767917
82670.00000 0.769053
82680.00000 0.770158
82690.00000 0.771236
82700.00000 0.772288
82710.00000 0.773318
82720.00000 0.774325
82730.00000 0.775304
82740.00000 0.776257
82750.00000 0.777186
82760.00000 0.778093
82770.00000 0.77898
82780.00000 0.779849
82790.00000 0.780698
82800.00000 0.781524
82810.00000 0.782328
82820.00000 0.783114
82830.00000 0.783883
82840.00000 0.784638
82850.00000 0.785381
82860.00000 0.78611
82870.00000 0.786822
82880.00000 0.787518
82890.00000 0.788201
82900.00000 0.788872
82910.00000 0.789533
82920.00000 0.790186
82930.00000 0.790827
82940.00000 0.791456
82950.00000 0.792074
82960.00000 0.792682
82970.00000 0.793283
82980.00000 0.793877
82990.00000 0.794467
83000.00000 0.79505
83010.00000 0.795624
83020.00000 0.796191
83030.00000 0.796752
83040.00000 0.79731
83050.00000 0.797864
83060.00000 0.798416
83070.00000 0.798963
83080.00000 0.799506
83090.00000 0.800045
83100.00000 0.800581
83110.00000 0.801116
83120.00000 0.80165
83130.00000 0.802184
83140.00000 0.802716
83150.00000 0.803246
83160.00000 0.803774
83170.00000 0.804303
83180.00000 0.804832
83190.00000 0.805364
83200.00000 0.805898
83210.00000 0.806434
83220.00000 0.806969
83230.00000 0.807506
83240.00000 0.808046
83250.00000 0.808588
83260.00000 0.809133
83270.00000 0.809683
83280.00000 0.810234
83290.00000 0.810788
83300.00000 0.811345
83310.00000 0.811906
83320.00000 0.812472
83330.00000 0.813043
83340.00000 0.813621
83350.00000 0.814203
83360.00000 0.81479
83370.00000 0.815381
83380.00000 0.815978
83390.00000 0.816581
83400.00000 0.817188
83410.00000 0.817801
83420.00000 0.818418
83430.00000 0.819041
83440.00000 0.819669
83450.00000 0.820302
83460.00000 0.820941
83470.00000 0.821585
83480.00000 0.822236
83490.00000 0.822893
83500.00000 0.823557
83510.00000 0.824225
83520.00000 0.824898
83530.00000 0.825574
83540.00000 0.826254
83550.00000 0.826937
83560.00000 0.827625
83570.00000 0.828316
83580.00000 0.829012
83590.00000 0.82971
83600.00000 0.830412
83610.00000 0.831116
83620.00000 0.831823
83630.00000 0.832534
83640.00000 0.833249
83650.00000 0.833967
83660.00000 0.834686
83670.00000 0.835406
83680.00000 0.836127
83690.00000 0.836847
83700.00000 0.837569
83710.00000 0.838291
83720.00000 0.839015
83730.00000 0.839739
83740.00000 0.840463
83750.00000 0.841188
83760.00000 0.841914
83770.00000 0.842641
83780.00000 0.843369
83790.00000 0.844097
83800.00000 0.844825
83810.00000 0.845551
83820.00000 0.846275
83830.00000 0.846997
83840.00000 0.847718
83850.00000 0.848438
83860.00000 0.849157
83870.00000 0.849873
83880.00000 0.850587
83890.00000 0.851299
83900.00000 0.852008
83910.00000 0.852716
83920.00000 0.853423
83930.00000 0.854127
83940.00000 0.854827
83950.00000 0.855522
83960.00000 0.856211
83970.00000 0.856894
83980.00000 0.857572
83990.00000 0.858246
84000.00000 0.858914
84010.00000 0.859577
84020.00000 0.860233
84030.00000 0.860881
84040.00000 0.861523
84050.00000 0.862159
84060.00000 0.86279
84070.00000 0.863414
84080.00000 0.864029
84090.00000 0.864636
84100.00000 0.865233
84110.00000 0.865819
84120.00000 0.866397
84130.00000 0.866966
84140.00000 0.867526
84150.00000 0.868077
84160.00000 0.868617
84170.00000 0.869147
84180.00000 0.869667
84190.00000 0.870177
84200.00000 0.870678
84210.00000 0.871169
84220.00000 0.871649
84230.00000 0.872117
84240.00000 0.872572
84250.00000 0.873014
84260.00000 0.873444
84270.00000 0.873863
84280.00000 0.874269
84290.00000 0.874663
84300.00000 0.875044
84310.00000 0.875411
84320.00000 0.875764
84330.00000 0.876105
84340.00000 0.876434
84350.00000 0.876749
84360.00000 0.87705
84370.00000 0.877337
84380.00000 0.877608
84390.00000 0.877862
84400.00000 0.878102
84410.00000 0.878326
84420.00000 0.878536
84430.00000 0.87873
84440.00000 0.878909
84450.00000 0.879072
84460.00000 0.879219
84470.00000 0.879351
84480.00000 0.879467
84490.00000 0.879567
84500.00000 0.879651
84510.00000 0.87972
84520.00000 0.879772
84530.00000 0.879808
84540.00000 0.879827
84550.00000 0.87983
84560.00000 0.879816
84570.00000 0.879786
84580.00000 0.87974
84590.00000 0.879679
84600.00000 0.879603
84610.00000 0.879511
84620.00000 0.879403
84630.00000 0.87928
84640.00000 0.879141
84650.00000 0.878988
84660.00000 0.878819
84670.00000 0.878637
84680.00000 0.878439
84690.00000 0.878227
84700.00000 0.877999
84710.00000 0.877757
84720.00000 0.877501
84730.00000 0.877231
84740.00000 0.876949
84750.00000 0.876654
84760.00000 0.876346
84770.00000 0.876023
84780.00000 0.875688
84790.00000 0.87534
84800.00000 0.874979
84810.00000 0.874607
84820.00000 0.874224
84830.00000 0.873829
84840.00000 0.87342
84850.00000 0.873
84860.00000 0.872568
84870.00000 0.872126
84880.00000 0.871674
84890.00000 0.871212
84900.00000 0.87074
84910.00000 0.870257
84920.00000 0.869762
84930.00000 0.869259
84940.00000 0.868746
84950.00000 0.868225
84960.00000 0.867696
84970.00000 0.86716
84980.00000 0.866614
84990.00000 0.866059
85000.00000 0.865496
85010.00000 0.864926
85020.00000 0.86435
85030.00000 0.86377
85040.00000 0.863185
85050.00000 0.862592
85060.00000 0.861993
85070.00000 0.861387
85080.00000 0.860778
85090.00000 0.860165
85100.00000 0.85955
85110.00000 0.858935
85120.00000 0.858315
85130.00000 0.857691
85140.00000 0.857064
85150.00000 0.856435
85160.00000 0.855806
85170.00000 0.855177
85180.00000 0.854549
85190.00000 0.853921
85200.00000 0.853292
85210.00000 0.852662
85220.00000 0.852033
85230.00000 0.851405
85240.00000 0.85078
85250.00000 0.850157
85260.00000 0.849538
85270.00000 0.848919
85280.00000 0.848302
85290.00000 0.847688
85300.00000 0.847076
85310.00000 0.846468
85320.00000 0.845863
85330.00000 0.845262
85340.00000 0.844664
85350.00000 0.844069
85360.00000 0.843477
85370.00000 0.842889
85380.00000 0.842306
85390.00000 0.841727
85400.00000 0.841153
85410.00000 0.840583
85420.00000 0.840017
85430.00000 0.839455
85440.00000 0.838898
85450.00000 0.838346
85460.00000 0.837801
85470.00000 0.837262
85480.00000 0.836729
85490.00000 0.836201
85500.00000 0.835678
85510.00000 0.835162
85520.00000 0.834652
85530.00000 0.834151
85540.00000 0.833658
85550.00000 0.833174
85560.00000 0.832696
85570.00000 0.832226
85580.00000 0.831763
85590.00000 0.83131
85600.00000 0.830866
85610.00000 0.830431
85620.00000 0.830008
85630.00000 0.829593
85640.00000 0.829187
85650.00000 0.828791
85660.00000 0.828405
85670.00000 0.828029
85680.00000 0.827664
85690.00000 0.82731
85700.00000 0.826967
85710.00000 0.826634
85720.00000 0.826312
85730.00000 0.826
85740.00000 0.825699
85750.00000 0.825408
85760.00000 0.825129
85770.00000 0.82486
85780.00000 0.824601
85790.00000 0.824354
85800.00000 0.824117
85810.00000 0.823891
85820.00000 0.823675
85830.00000 0.823469
85840.00000 0.823273
85850.00000 0.823087
85860.00000 0.822913
85870.00000 0.822748
85880.00000 0.822593
85890.00000 0.822448
85900.00000 0.822312
85910.00000 0.822185
85920.00000 0.822067
85930.00000 0.821959
85940.00000 0.82186
85950.00000 0.82177
85960.00000 0.82169
85970.00000 0.821618
85980.00000 0.821554
85990.00000 0.821498
86000.00000 0.821452
86010.00000 0.821414
86020.00000 0.821385
86030.00000 0.821364
86040.00000 0.821351
86050.00000 0.821345
86060.00000 0.821346
86070.00000 0.821355
86080.00000 0.821372
86090.00000 0.821396
86100.00000 0.821428
86110.00000 0.821467
86120.00000 0.821512
86130.00000 0.821563
86140.00000 0.821621
86150.00000 0.821686
86160.00000 0.821759
86170.00000 0.821837
86180.00000 0.821922
86190.00000 0.822012
86200.00000 0.822106
86210.00000 0.822204
86220.00000 0.822308
86230.00000 0.822418
86240.00000 0.822534
86250.00000 0.822653
86260.00000 0.822776
86270.00000 0.822902
86280.00000 0.823029
86290.00000 0.82316
86300.00000 0.823295
86310.00000 0.823435
86320.00000 0.823576
86330.00000 0.823719
86340.00000 0.823863
86350.00000 0.824006
86360.00000 0.824147
86370.00000 0.82429
86380.00000 0.824434
86390.00000 0.824579
86400.00000 0.824723
86410.00000 0.824865
86420.00000 0.825004
86430.00000 0.825138
86440.00000 0.825271
86450.00000 0.825402
86460.00000 0.825531
86470.00000 0.825658
86480.00000 0.82578
86490.00000 0.825897
86500.00000 0.826007
86510.00000 0.82611
86520.00000 0.826208
86530.00000 0.826302
86540.00000 0.826391
86550.00000 0.826473
86560.00000 0.826548
86570.00000 0.826615
86580.00000 0.826672
86590.00000 0.826721
86600.00000 0.826763
86610.00000 0.826799
86620.00000 0.826826
86630.00000 0.826843
86640.00000 0.826851
86650.00000 0.826848
86660.00000 0.826833
86670.00000 0.826809
86680.00000 0.826775
86690.00000 0.826732
86700.00000 0.826678
86710.00000 0.826612
86720.00000 0.826535
86730.00000 0.826444
86740.00000 0.826342
86750.00000 0.826229
86760.00000 0.826104
86770.00000 0.825967
86780.00000 0.825818
86790.00000 0.825655
86800.00000 0.825479
86810.00000 0.825288
86820.00000 0.825084
86830.00000 0.824867
86840.00000 0.824638
86850.00000 0.824394
86860.00000 0.824136
86870.00000 0.823863
86880.00000 0.823575
86890.00000 0.823272
86900.00000 0.822954
86910.00000 0.822622
86920.00000 0.822276
86930.00000 0.821914
86940.00000 0.821537
86950.00000 0.821143
86960.00000 0.820734
86970.00000 0.820309
86980.00000 0.819869
86990.00000 0.819413
87000.00000 0.818941
87010.00000 0.818454
87020.00000 0.817952
87030.00000 0.817434
87040.00000 0.816901
87050.00000 0.816351
87060.00000 0.815786
87070.00000 0.815205
87080.00000 0.81461
87090.00000 0.814
87100.00000 0.813375
87110.00000 0.812737
87120.00000 0.812083
87130.00000 0.811415
87140.00000 0.810731
87150.00000 0.810034
87160.00000 0.809322
87170.00000 0.808598
87180.00000 0.807861
87190.00000 0.807112
87200.00000 0.806348
87210.00000 0.805571
87220.00000 0.80478
87230.00000 0.803978
87240.00000 0.803163
87250.00000 0.802336
87260.00000 0.801499
87270.00000 0.80065
87280.00000 0.799788
87290.00000 0.798914
87300.00000 0.798028
87310.00000 0.797132
87320.00000 0.796226
87330.00000 0.79531
87340.00000 0.794386
87350.00000 0.793451
87360.00000 0.792505
87370.00000 0.791549
87380.00000 0.790583
87390.00000 0.789609
87400.00000 0.788628
87410.00000 0.787639
87420.00000 0.786643
87430.00000 0.785637
87440.00000 0.784622
87450.00000 0.7836
87460.00000 0.782571
87470.00000 0.781536
87480.00000 0.780496
87490.00000 0.779452
87500.00000 0.778402
87510.00000 0.777344
87520.00000 0.776281
87530.00000 0.775213
87540.00000 0.774141
87550.00000 0.773067
87560.00000 0.77199
87570.00000 0.770912
87580.00000 0.769829
87590.00000 0.768742
87600.00000 0.767652
87610.00000 0.76656
87620.00000 0.765468
87630.00000 0.764377
87640.00000 0.763289
87650.00000 0.762204
87660.00000 0.761117
87670.00000 0.76003
87680.00000 0.758944
87690.00000 0.757861
87700.00000 0.756781
87710.00000 0.755706
87720.00000 0.754638
87730.00000 0.753572
87740.00000 0.752509
87750.00000 0.75145
87760.00000 0.750395
87770.00000 0.749346
87780.00000 0.748305
87790.00000 0.747273
87800.00000 0.746251
87810.00000 0.745235
87820.00000 0.744226
87830.00000 0.743224
87840.00000 0.742231
87850.00000 0.741247
87860.00000 0.740274
87870.00000 0.739312
87880.00000 0.738361
87890.00000 0.737418
87900.00000 0.736484
87910.00000 0.735561
87920.00000 0.734649
87930.00000 0.73375
87940.00000 0.732866
87950.00000 0.731998
87960.00000 0.731144
87970.00000 0.730303
87980.00000 0.729475
87990.00000 0.728661
88000.00000 0.727862
88010.00000 0.727079
88020.00000 0.726312
88030.00000 0.725562
88040.00000 0.724827
88050.00000 0.724107
88060.00000 0.723403
88070.00000 0.722714
88080.00000 0.722043
88090.00000 0.72139
88100.00000 0.720755
88110.00000 0.72014
88120.00000 0.719542
88130.00000 0.718962
88140.00000 0.7184
88150.00000 0.717856
88160.00000 0.717331
88170.00000 0.716823
88180.00000 0.716335
88190.00000 0.715864
88200.00000 0.715412
88210.00000 0.714977
88220.00000 0.71456
88230.00000 0.714162
88240.00000 0.713784
88250.00000 0.713425
88260.00000 0.713087
88270.00000 0.71277
88280.00000 0.712472
88290.00000 0.712193
88300.00000 0.711935
88310.00000 0.711696
88320.00000 0.711476
88330.00000 0.711276
88340.00000 0.711096
88350.00000 0.710935
88360.00000 0.710793
88370.00000 0.710671
88380.00000 0.710568
88390.00000 0.710485
88400.00000 0.710422
88410.00000 0.71038
88420.00000 0.710357
88430.00000 0.710354
88440.00000 0.710372
88450.00000 0.710409
88460.00000 0.710467
88470.00000 0.710543
88480.00000 0.71064
88490.00000 0.710755
88500.00000 0.71089
88510.00000 0.711044
88520.00000 0.711217
88530.00000 0.71141
88540.00000 0.711623
88550.00000 0.711854
88560.00000 0.712106
88570.00000 0.712376
88580.00000 0.712667
88590.00000 0.712978
88600.00000 0.713309
88610.00000 0.713659
88620.00000 0.714028
88630.00000 0.714416
88640.00000 0.714821
88650.00000 0.715244
88660.00000 0.715685
88670.00000 0.716145
88680.00000 0.716623
88690.00000 0.71712
88700.00000 0.717633
88710.00000 0.718163
88720.00000 0.718708
88730.00000 0.719268
88740.00000 0.719844
88750.00000 0.720438
88760.00000 0.721047
88770.00000 0.721673
88780.00000 0.722313
88790.00000 0.722967
88800.00000 0.723635
88810.00000 0.724314
88820.00000 0.725007
88830.00000 0.725715
88840.00000 0.726436
88850.00000 0.727171
88860.00000 0.727918
88870.00000 0.728677
88880.00000 0.729447
88890.00000 0.730227
88900.00000 0.731019
88910.00000 0.731824
88920.00000 0.732641
88930.00000 0.733469
88940.00000 0.734307
88950.00000 0.735153
88960.00000 0.736006
88970.00000 0.736866
88980.00000 0.737735
88990.00000 0.738615
89000.00000 0.739504
89010.00000 0.7404
89020.00000 0.741302
89030.00000 0.742208
89040.00000 0.743116
89050.00000 0.744026
89060.00000 0.744941
89070.00000 0.745862
89080.00000 0.746788
89090.00000 0.747717
89100.00000 0.748647
89110.00000 0.749576
89120.00000 0.750503
89130.00000 0.751425
89140.00000 0.752349
89150.00000 0.753274
89160.00000 0.754199
89170.00000 0.755122
89180.00000 0.756041
89190.00000 0.756954
89200.00000 0.75786
89210.00000 0.758757
89220.00000 0.759651
89230.00000 0.760542
89240.00000 0.761427
89250.00000 0.762306
89260.00000 0.763176
89270.00000 0.764036
89280.00000 0.764884
89290.00000 0.765719
89300.00000 0.766547
89310.00000 0.767366
89320.00000 0.768176
89330.00000 0.768974
89340.00000 0.76976
89350.00000 0.770531
89360.00000 0.771286
89370.00000 0.772024
89380.00000 0.772749
89390.00000 0.773461
89400.00000 0.774159
89410.00000 0.774842
89420.00000 0.775509
89430.00000 0.776158
89440.00000 0.776788
89450.00000 0.777398
89460.00000 0.777993
89470.00000 0.778572
89480.00000 0.779133
89490.00000 0.779677
89500.00000 0.780201
89510.00000 0.780704
89520.00000 0.781186
89530.00000 0.781646
89540.00000 0.782086
89550.00000 0.782506
89560.00000 0.782907
89570.00000 0.783287
89580.00000 0.783645
89590.00000 0.783982
89600.00000 0.784295
89610.00000 0.784586
89620.00000 0.784855
89630.00000 0.785102
89640.00000 0.785328
89650.00000 0.785531
89660.00000 0.785712
89670.00000 0.78587
89680.00000 0.786005
89690.00000 0.786116
89700.00000 0.786203
89710.00000 0.786266
89720.00000 0.786306
89730.00000 0.786323
89740.00000 0.786319
89750.00000 0.786294
89760.00000 0.786249
89770.00000 0.786184
89780.00000 0.786097
89790.00000 0.785988
89800.00000 0.785857
89810.00000 0.785706
89820.00000 0.785536
89830.00000 0.785347
89840.00000 0.78514
89850.00000 0.784916
89860.00000 0.784672
89870.00000 0.784408
89880.00000 0.784125
89890.00000 0.783823
89900.00000 0.783505
89910.00000 0.783172
89920.00000 0.782825
89930.00000 0.782464
89940.00000 0.782087
89950.00000 0.781692
89960.00000 0.781282
89970.00000 0.780856
89980.00000 0.780418
89990.00000 0.779968
90000.00000 0.779508
90010.00000 0.779039
90020.00000 0.778557
90030.00000 0.778061
90040.00000 0.777552
90050.00000 0.777032
90060.00000 0.776504
90070.00000 0.77597
90080.00000 0.775431
90090.00000 0.77489
90100.00000 0.774343
90110.00000 0.773785
90120.00000 0.773219
90130.00000 0.772649
90140.00000 0.772076
90150.00000 0.771504
90160.00000 0.770935
90170.00000 0.770372
90180.00000 0.769812
90190.00000 0.769251
90200.00000 0.768689
90210.00000 0.768129
90220.00000 0.767574
90230.00000 0.767024
90240.00000 0.766483
90250.00000 0.765952
90260.00000 0.765431
90270.00000 0.764911
90280.00000 0.764396
90290.00000 0.763888
90300.00000 0.763391
90310.00000 0.762906
90320.00000 0.762438
90330.00000 0.761989
90340.00000 0.76156
90350.00000 0.761144
90360.00000 0.76074
90370.00000 0.760352
90380.00000 0.759981
90390.00000 0.759627
90400.00000 0.759294
90410.00000 0.758982
90420.00000 0.758693
90430.00000 0.75842
90440.00000 0.758162
90450.00000 0.757923
90460.00000 0.757706
90470.00000 0.757513
90480.00000 0.757347
90490.00000 0.757212
90500.00000 0.757109
90510.00000 0.757034
90520.00000 0.756985
90530.00000 0.756964
90540.00000 0.756969
90550.00000 0.757004
90560.00000 0.757067
90570.00000 0.757159
90580.00000 0.757282
90590.00000 0.757432
90600.00000 0.757609
90610.00000 0.757813
90620.00000 0.758047
90630.00000 0.758312
90640.00000 0.75861
90650.00000 0.758942
90660.00000 0.75931
90670.00000 0.759715
90680.00000 0.760154
90690.00000 0.760627
90700.00000 0.761133
90710.00000 0.761673
90720.00000 0.762244
90730.00000 0.762848
90740.00000 0.763483
90750.00000 0.764149
90760.00000 0.764847
90770.00000 0.765578
90780.00000 0.76634
90790.00000 0.767135
90800.00000 0.76796
90810.00000 0.768817
90820.00000 0.769706
90830.00000 0.770625
90840.00000 0.771581
90850.00000 0.772573
90860.00000 0.773597
90870.00000 0.774651
90880.00000 0.775731
90890.00000 0.776834
90900.00000 0.777957
90910.00000 0.779097
90920.00000 0.780263
90930.00000 0.781458
90940.00000 0.78268
90950.00000 0.783923
90960.00000 0.785182
90970.00000 0.786453
90980.00000 0.787732
90990.00000 0.789013
91000.00000 0.790304
91010.00000 0.791621
91020.00000 0.792955
91030.00000 0.794298
91040.00000 0.795644
91050.00000 0.796982
91060.00000 0.798307
91070.00000 0.799609
91080.00000 0.800888
91090.00000 0.802173
91100.00000 0.803458
91110.00000 0.804734
91120.00000 0.80599
91130.00000 0.807216
91140.00000 0.808402
91150.00000 0.809538
91160.00000 0.810615
91170.00000 0.811666
91180.00000 0.812697
91190.00000 0.813695
91200.00000 0.814647
91210.00000 0.815541
91220.00000 0.816363
91230.00000 0.817102
91240.00000 0.817743
91250.00000 0.818305
91260.00000 0.818818
91270.00000 0.819267
91280.00000 0.819639
91290.00000 0.81992
91300.00000 0.820097
91310.00000 0.820157
91320.00000 0.820086
91330.00000 0.819882
91340.00000 0.819587
91350.00000 0.819196
91360.00000 0.818695
91370.00000 0.818071
91380.00000 0.817312
91390.00000 0.816404
91400.00000 0.815336
91410.00000 0.814095
91420.00000 0.812711
91430.00000 0.811195
91440.00000 0.809535
91450.00000 0.807725
91460.00000 0.805753
91470.00000 0.803611
91480.00000 0.801291
91490.00000 0.798782
91500.00000 0.79609
91510.00000 0.793231
91520.00000 0.790202
91530.00000 0.787001
91540.00000 0.783624
91550.00000 0.780069
91560.00000 0.776332
91570.00000 0.772412
91580.00000 0.768304
91590.00000 0.764005
91600.00000 0.759521
91610.00000 0.754854
91620.00000 0.750012
91630.00000 0.744998
91640.00000 0.739819
91650.00000 0.734479
91660.00000 0.728982
91670.00000 0.723307
91680.00000 0.717445
91690.00000 0.711409
91700.00000 0.705212
91710.00000 0.698867
91720.00000 0.692386
91730.00000 0.685782
91740.00000 0.679068
91750.00000 0.672235
91760.00000 0.665241
91770.00000 0.658098
91780.00000 0.650823
91790.00000 0.643436
91800.00000 0.635953
91810.00000 0.628393
91820.00000 0.620773
91830.00000 0.613108
91840.00000 0.605341
91850.00000 0.597466
91860.00000 0.589502
91870.00000 0.581467
91880.00000 0.573383
91890.00000 0.56527
91900.00000 0.557146
91910.00000 0.549032
91920.00000 0.540911
91930.00000 0.532734
91940.00000 0.524517
91950.00000 0.516277
91960.00000 0.508032
91970.00000 0.4998
91980.00000 0.4916
91990.00000 0.483448
92000.00000 0.475357
92010.00000 0.467276
92020.00000 0.459201
92030.00000 0.451148
92040.00000 0.44313
92050.00000 0.435161
92060.00000 0.427256
92070.00000 0.41943
92080.00000 0.411695
92090.00000 0.404039
92100.00000 0.396436
92110.00000 0.388892
92120.00000 0.381415
92130.00000 0.374015
92140.00000 0.366701
92150.00000 0.359479
92160.00000 0.352359
92170.00000 0.345347
92180.00000 0.338421
92190.00000 0.33158
92200.00000 0.324828
92210.00000 0.31817
92220.00000 0.311609
92230.00000 0.305151
92240.00000 0.298798
92250.00000 0.292557
92260.00000 0.286425
92270.00000 0.280396
92280.00000 0.27447
92290.00000 0.268647
92300.00000 0.262927
92310.00000 0.257308
92320.00000 0.251792
92330.00000 0.246377
92340.00000 0.241064
92350.00000 0.235858
92360.00000 0.230756
92370.00000 0.225757
92380.00000 0.220858
92390.00000 0.216058
92400.00000 0.211353
92410.00000 0.206741
92420.00000 0.20222
92430.00000 0.197795
92440.00000 0.193472
92450.00000 0.189249
92460.00000 0.18512
92470.00000 0.181081
92480.00000 0.177128
92490.00000 0.173257
92500.00000 0.169464
92510.00000 0.165744
92520.00000 0.162112
92530.00000 0.158569
92540.00000 0.15511
92550.00000 0.151731
92560.00000 0.148428
92570.00000 0.145196
92580.00000 0.142032
92590.00000 0.13893
92600.00000 0.135894
92610.00000 0.132934
92620.00000 0.130048
92630.00000 0.127233
92640.00000 0.124483
92650.00000 0.121795
92660.00000 0.119165
92670.00000 0.116589
92680.00000 0.114064
92690.00000 0.111599
92700.00000 0.109198
92710.00000 0.106857
92720.00000 0.104573
92730.00000 0.102342
92740.00000 0.100161
92750.00000 0.098026
92760.00000 0.095933
92770.00000 0.093882
92780.00000 0.091883
92790.00000 0.089935
92800.00000 0.088035
92810.00000 0.086181
92820.00000 0.084369
92830.00000 0.082597
92840.00000 0.080862
92850.00000 0.079162
92860.00000 0.0775
92870.00000 0.075882
92880.00000 0.074307
92890.00000 0.07277
92900.00000 0.07127
92910.00000 0.069803
92920.00000 0.068366
92930.00000 0.066957
92940.00000 0.065573
92950.00000 0.064221
92960.00000 0.062903
92970.00000 0.061616
92980.00000 0.06036
92990.00000 0.059132
93000.00000 0.05793
93010.00000 0.056754
93020.00000 0.055601
93030.00000 0.054472
93040.00000 0.053373
93050.00000 0.052301
93060.00000 0.051256
93070.00000 0.050235
93080.00000 0.049237
93090.00000 0.048259
93100.00000 0.0473
93110.00000 0.046357
93120.00000 0.045433
93130.00000 0.044532
93140.00000 0.043651
93150.00000 0.04279
93160.00000 0.041949
93170.00000 0.041125
93180.00000 0.040319
93190.00000 0.039528
93200.00000 0.038753
93210.00000 0.037997
93220.00000 0.037261
93230.00000 0.036542
93240.00000 0.03584
93250.00000 0.035154
93260.00000 0.034481
93270.00000 0.03382
93280.00000 0.033171
93290.00000 0.032533
93300.00000 0.031909
93310.00000 0.031299
93320.00000 0.030702
93330.00000 0.030118
93340.00000 0.029547
93350.00000 0.028986
93360.00000 0.028436
93370.00000 0.027896
93380.00000 0.027367
93390.00000 0.02685
93400.00000 0.026346
93410.00000 0.025852
93420.00000 0.025369
93430.00000 0.024896
93440.00000 0.024431
93450.00000 0.023973
93460.00000 0.023523
93470.00000 0.023081
93480.00000 0.022648
93490.00000 0.022224
93500.00000 0.021809
93510.00000 0.021402
93520.00000 0.021003
93530.00000 0.020611
93540.00000 0.020225
93550.00000 0.019846
93560.00000 0.019475
93570.00000 0.019112
93580.00000 0.018757
93590.00000 0.018409
93600.00000 0.018067
93610.00000 0.017732
93620.00000 0.017402
93630.00000 0.017078
93640.00000 0.01676
93650.00000 0.016448
93660.00000 0.016143
93670.00000 0.015844
93680.00000 0.015551
93690.00000 0.015263
93700.00000 0.014981
93710.00000 0.014704
93720.00000 0.014432
93730.00000 0.014164
93740.00000 0.013903
93750.00000 0.013646
93760.00000 0.013395
93770.00000 0.01315
93780.00000 0.012909
93790.00000 0.012672
93800.00000 0.012441
93810.00000 0.012213
93820.00000 0.011991
93830.00000 0.011774
93840.00000 0.011562
93850.00000 0.011355
93860.00000 0.011152
93870.00000 0.010953
93880.00000 0.010757
93890.00000 0.010564
93900.00000 0.010375
93910.00000 0.010189
93920.00000 0.010008
93930.00000 0.009829
93940.00000 0.009655
93950.00000 0.009484
93960.00000 0.009316
93970.00000 0.009152
93980.00000 0.00899
93990.00000 0.008832
94000.00000 0.008677
94010.00000 0.008526
94020.00000 0.008379
94030.00000 0.008235
94040.00000 0.008093
94050.00000 0.007954
94060.00000 0.007817
94070.00000 0.007681
94080.00000 0.007547
94090.00000 0.007415
94100.00000 0.007286
94110.00000 0.007159
94120.00000 0.007034
94130.00000 0.006911
94140.00000 0.00679
94150.00000 0.006672
94160.00000 0.006555
94170.00000 0.006441
94180.00000 0.00633
94190.00000 0.00622
94200.00000 0.006113
94210.00000 0.006008
94220.00000 0.005905
94230.00000 0.005804
94240.00000 0.005703
94250.00000 0.005604
94260.00000 0.005506
94270.00000 0.005409
94280.00000 0.005314
94290.00000 0.00522
94300.00000 0.005128
94310.00000 0.005037
94320.00000 0.004948
94330.00000 0.004861
94340.00000 0.004775
94350.00000 0.004691
94360.00000 0.00461
94370.00000 0.00453
94380.00000 0.004452
94390.00000 0.004375
94400.00000 0.004299
94410.00000 0.004225
94420.00000 0.004152
94430.00000 0.004079
94440.00000 0.004008
103884.00000 0.0
