# %ECSV 0.9
# ---
# datatype:
# - {name: wavelength, unit: Angstrom, datatype: float32}
# - {name: response, datatype: float32}
# meta: !!omap
# - {band_name: rSDSS}
# - {group_name: JPLUS}
wavelength response
5305.00000 0.0
5310.00000 1e-07
5315.00000 5e-07
5320.00000 1.8e-06
5325.00000 6.3e-06
5330.00000 2.3e-05
5335.00000 8.31e-05
5340.00000 0.0002998
5345.00000 0.0010799
5350.00000 0.0038764
5355.00000 0.0050555
5360.00000 0.0065779
5365.00000 0.0085406
5370.00000 0.0110712
5375.00000 0.0143398
5380.00000 0.0185723
5385.00000 0.0240675
5390.00000 0.0312166
5395.00000 0.0405258
5400.00000 0.0526437
5405.00000 0.0613718
5410.00000 0.0715307
5415.00000 0.0833105
5420.00000 0.0969277
5425.00000 0.11264
5430.00000 0.130765
5435.00000 0.151697
5440.00000 0.17592
5445.00000 0.204015
5450.00000 0.236662
5455.00000 0.255348
5460.00000 0.275625
5465.00000 0.29756
5470.00000 0.321205
5475.00000 0.346583
5480.00000 0.37372
5485.00000 0.402679
5490.00000 0.433578
5495.00000 0.466597
5500.00000 0.501988
5505.00000 0.519483
5510.00000 0.537731
5515.00000 0.556829
5520.00000 0.576816
5525.00000 0.597657
5530.00000 0.61925
5535.00000 0.641455
5540.00000 0.664127
5545.00000 0.687156
5550.00000 0.710511
5555.00000 0.721204
5560.00000 0.731851
5565.00000 0.742675
5570.00000 0.753915
5575.00000 0.765784
5580.00000 0.778417
5585.00000 0.791844
5590.00000 0.805975
5595.00000 0.820605
5600.00000 0.835447
5605.00000 0.842695
5610.00000 0.849377
5615.00000 0.855312
5620.00000 0.860459
5625.00000 0.864932
5630.00000 0.868979
5635.00000 0.872943
5640.00000 0.877203
5645.00000 0.882106
5650.00000 0.88791
5655.00000 0.891702
5660.00000 0.896467
5665.00000 0.902025
5670.00000 0.908063
5675.00000 0.914208
5680.00000 0.920073
5685.00000 0.925315
5690.00000 0.929696
5695.00000 0.933127
5700.00000 0.935674
5705.00000 0.936139
5710.00000 0.936242
5715.00000 0.936338
5720.00000 0.93676
5725.00000 0.937772
5730.00000 0.939527
5735.00000 0.942049
5740.00000 0.945237
5745.00000 0.948883
5750.00000 0.95271
5755.00000 0.955278
5760.00000 0.957453
5765.00000 0.95904
5770.00000 0.959952
5775.00000 0.960218
5780.00000 0.959976
5785.00000 0.959441
5790.00000 0.958865
5795.00000 0.958491
5800.00000 0.958514
5805.00000 0.958767
5810.00000 0.959549
5815.00000 0.960782
5820.00000 0.962308
5825.00000 0.963921
5830.00000 0.965401
5835.00000 0.966552
5840.00000 0.967244
5845.00000 0.96743
5850.00000 0.967162
5855.00000 0.966586
5860.00000 0.965901
5865.00000 0.965341
5870.00000 0.965129
5875.00000 0.965453
5880.00000 0.966424
5885.00000 0.96807
5890.00000 0.970321
5895.00000 0.973022
5900.00000 0.975949
5905.00000 0.978258
5910.00000 0.980268
5915.00000 0.981755
5920.00000 0.98256
5925.00000 0.982618
5930.00000 0.981965
5935.00000 0.980725
5940.00000 0.979094
5945.00000 0.977309
5950.00000 0.975607
5955.00000 0.974494
5960.00000 0.973825
5965.00000 0.973681
5970.00000 0.974063
5975.00000 0.974896
5980.00000 0.976048
5985.00000 0.977345
5990.00000 0.978607
5995.00000 0.97967
6000.00000 0.980415
6005.00000 0.980492
6010.00000 0.980202
6015.00000 0.979625
6020.00000 0.978886
6025.00000 0.978144
6030.00000 0.977558
6035.00000 0.977266
6040.00000 0.977363
6045.00000 0.977881
6050.00000 0.978786
6055.00000 0.979982
6060.00000 0.981324
6065.00000 0.982635
6070.00000 0.983729
6075.00000 0.98444
6080.00000 0.984643
6085.00000 0.984277
6090.00000 0.983356
6095.00000 0.981962
6100.00000 0.980244
6105.00000 0.978391
6110.00000 0.976611
6115.00000 0.975106
6120.00000 0.974044
6125.00000 0.97354
6130.00000 0.973646
6135.00000 0.974342
6140.00000 0.975541
6145.00000 0.977096
6150.00000 0.978821
6155.00000 0.980511
6160.00000 0.981967
6165.00000 0.983021
6170.00000 0.983556
6175.00000 0.983521
6180.00000 0.982936
6185.00000 0.98189
6190.00000 0.980523
6195.00000 0.979011
6200.00000 0.977541
6205.00000 0.976286
6210.00000 0.975387
6215.00000 0.974938
6220.00000 0.974973
6225.00000 0.975469
6230.00000 0.976345
6235.00000 0.977475
6240.00000 0.978705
6245.00000 0.97987
6250.00000 0.980819
6255.00000 0.981429
6260.00000 0.98162
6265.00000 0.981366
6270.00000 0.980695
6275.00000 0.979687
6280.00000 0.978458
6285.00000 0.977147
6290.00000 0.9759
6295.00000 0.974847
6300.00000 0.974088
6305.00000 0.973687
6310.00000 0.973657
6315.00000 0.973969
6320.00000 0.97455
6325.00000 0.975295
6330.00000 0.97608
6335.00000 0.97678
6340.00000 0.977283
6345.00000 0.977506
6350.00000 0.977403
6355.00000 0.976979
6360.00000 0.976281
6365.00000 0.975399
6370.00000 0.974452
6375.00000 0.973575
6380.00000 0.9729
6385.00000 0.972547
6390.00000 0.972603
6395.00000 0.973115
6400.00000 0.974084
6405.00000 0.975462
6410.00000 0.977158
6415.00000 0.979043
6420.00000 0.980963
6425.00000 0.982756
6430.00000 0.984265
6435.00000 0.985359
6440.00000 0.985949
6445.00000 0.985988
6450.00000 0.985483
6455.00000 0.984489
6460.00000 0.983105
6465.00000 0.981461
6470.00000 0.979702
6475.00000 0.977975
6480.00000 0.976409
6485.00000 0.975108
6490.00000 0.974139
6495.00000 0.973525
6500.00000 0.97325
6505.00000 0.973257
6510.00000 0.973459
6515.00000 0.973748
6520.00000 0.974011
6525.00000 0.97414
6530.00000 0.974048
6535.00000 0.973678
6540.00000 0.973012
6545.00000 0.972072
6550.00000 0.970921
6555.00000 0.969653
6560.00000 0.968385
6565.00000 0.967246
6570.00000 0.966359
6575.00000 0.965832
6580.00000 0.965746
6585.00000 0.966145
6590.00000 0.967034
6595.00000 0.968374
6600.00000 0.970085
6605.00000 0.972054
6610.00000 0.974145
6615.00000 0.976208
6620.00000 0.978094
6625.00000 0.979668
6630.00000 0.980834
6635.00000 0.981528
6640.00000 0.981733
6645.00000 0.981479
6650.00000 0.980836
6655.00000 0.979915
6660.00000 0.978846
6665.00000 0.977772
6670.00000 0.976831
6675.00000 0.976143
6680.00000 0.975801
6685.00000 0.975859
6690.00000 0.976332
6695.00000 0.977191
6700.00000 0.978368
6705.00000 0.979759
6710.00000 0.981238
6715.00000 0.982667
6720.00000 0.983909
6725.00000 0.984842
6730.00000 0.985372
6735.00000 0.985442
6740.00000 0.98504
6745.00000 0.9842
6750.00000 0.982997
6755.00000 0.981538
6760.00000 0.979957
6765.00000 0.978393
6770.00000 0.976983
6775.00000 0.975845
6780.00000 0.975066
6785.00000 0.974698
6790.00000 0.974746
6795.00000 0.975173
6800.00000 0.975897
6805.00000 0.976803
6810.00000 0.977747
6815.00000 0.978574
6820.00000 0.979133
6825.00000 0.979293
6830.00000 0.978956
6835.00000 0.978069
6840.00000 0.976639
6845.00000 0.974725
6850.00000 0.972445
6855.00000 0.969961
6860.00000 0.967467
6865.00000 0.965172
6870.00000 0.96328
6875.00000 0.961973
6880.00000 0.961391
6885.00000 0.961616
6890.00000 0.962662
6895.00000 0.964464
6900.00000 0.966878
6905.00000 0.969685
6910.00000 0.972605
6915.00000 0.97532
6920.00000 0.977513
6925.00000 0.978912
6930.00000 0.97934
6935.00000 0.97876
6940.00000 0.977317
6945.00000 0.975343
6950.00000 0.97334
6955.00000 0.971907
6960.00000 0.971614
6965.00000 0.972775
6970.00000 0.975094
6975.00000 0.977135
6980.00000 0.975595
6985.00000 0.964623
6990.00000 0.935884
6995.00000 0.880512
7000.00000 0.79348
7005.00000 0.678513
7010.00000 0.548616
7015.00000 0.421225
7020.00000 0.310436
7025.00000 0.222648
7030.00000 0.157436
7035.00000 0.110868
7040.00000 0.0782847
7045.00000 0.0556524
7050.00000 0.0399193
7055.00000 0.0289208
7060.00000 0.0211685
7065.00000 0.015652
7070.00000 0.0116871
7075.00000 0.0088089
7080.00000 0.0066987
7085.00000 0.005137
7090.00000 0.0039707
7095.00000 0.0030922
7100.00000 0.0024251
7105.00000 0.0019147
7110.00000 0.0015213
7115.00000 0.001216
7120.00000 0.0009776
7125.00000 0.0007901
7130.00000 0.0006419
7135.00000 0.0005241
7140.00000 0.0004299
7145.00000 0.0003543
7150.00000 0.0002932
7155.00000 0.0002437
7160.00000 0.0002033
7165.00000 0.0001703
7170.00000 0.0001432
7175.00000 0.0001208
7180.00000 0.0001023
7185.00000 8.69e-05
7190.00000 7.4e-05
7195.00000 6.33e-05
7200.00000 5.43e-05
7205.00000 4.67e-05
7210.00000 4.03e-05
7215.00000 3.48e-05
7220.00000 3.02e-05
7225.00000 2.63e-05
7230.00000 2.29e-05
7235.00000 2e-05
7240.00000 1.75e-05
7245.00000 1.54e-05
7250.00000 1.36e-05
7255.00000 1.2e-05
7260.00000 1.06e-05
7265.00000 9.4e-06
7270.00000 8.3e-06
7275.00000 7.4e-06
7280.00000 6.6e-06
7285.00000 5.9e-06
7290.00000 5.3e-06
7295.00000 4.7e-06
7300.00000 4.3e-06
7305.00000 3.8e-06
7310.00000 3.5e-06
7315.00000 3.1e-06
7320.00000 2.8e-06
7325.00000 2.6e-06
7330.00000 2.3e-06
7335.00000 2.1e-06
7340.00000 1.9e-06
7345.00000 1.8e-06
7350.00000 1.6e-06
7355.00000 1.5e-06
7360.00000 1.3e-06
7365.00000 1.2e-06
7370.00000 1.1e-06
7375.00000 1e-06
7380.00000 1e-06
8118.00000 0.0
