# %ECSV 0.9
# ---
# datatype:
# - {name: wavelength, unit: Angstrom, datatype: float32}
# - {name: response, datatype: float32}
# meta: !!omap
# - {band_name: iSDSS}
# - {group_name: JPLUS}
wavelength response
5850.00000 0.0
6500.00000 2e-07
6510.00000 2e-07
6520.00000 2e-07
6530.00000 2e-07
6540.00000 2e-07
6550.00000 2e-07
6560.00000 1.3e-06
6570.00000 8.2e-06
6580.00000 5.07e-05
6590.00000 0.0003108
6600.00000 0.0018947
6610.00000 0.0023134
6620.00000 0.0028238
6630.00000 0.0034466
6640.00000 0.0042073
6650.00000 0.0051376
6660.00000 0.006177
6670.00000 0.007431
6680.00000 0.008945
6690.00000 0.0107735
6700.00000 0.012982
6710.00000 0.0156648
6720.00000 0.0189052
6730.00000 0.0228152
6740.00000 0.0275273
6750.00000 0.0331974
6760.00000 0.0401621
6770.00000 0.0485469
6780.00000 0.0586244
6790.00000 0.0707161
6800.00000 0.0852026
6810.00000 0.100374
6820.00000 0.118117
6830.00000 0.138847
6840.00000 0.163052
6850.00000 0.1913
6860.00000 0.216834
6870.00000 0.245617
6880.00000 0.278068
6890.00000 0.314653
6900.00000 0.355902
6910.00000 0.386863
6920.00000 0.42042
6930.00000 0.456788
6940.00000 0.496198
6950.00000 0.538893
6960.00000 0.567871
6970.00000 0.59832
6980.00000 0.630302
6990.00000 0.663885
7000.00000 0.699137
7010.00000 0.720621
7020.00000 0.742684
7030.00000 0.765344
7040.00000 0.788619
7050.00000 0.812531
7060.00000 0.826522
7070.00000 0.840724
7080.00000 0.855143
7090.00000 0.869784
7100.00000 0.88465
7110.00000 0.893024
7120.00000 0.901463
7130.00000 0.909959
7140.00000 0.918508
7150.00000 0.9271
7160.00000 0.931895
7170.00000 0.936679
7180.00000 0.94145
7190.00000 0.946208
7200.00000 0.950956
7210.00000 0.95378
7220.00000 0.956593
7230.00000 0.959401
7240.00000 0.962212
7250.00000 0.965031
7260.00000 0.96691
7270.00000 0.968805
7280.00000 0.970718
7290.00000 0.972649
7300.00000 0.974597
7310.00000 0.975592
7320.00000 0.976595
7330.00000 0.9776
7340.00000 0.9786
7350.00000 0.979591
7360.00000 0.980086
7370.00000 0.980564
7380.00000 0.981023
7390.00000 0.981464
7400.00000 0.981889
7410.00000 0.981812
7420.00000 0.981728
7430.00000 0.981642
7440.00000 0.981559
7450.00000 0.981486
7460.00000 0.981427
7470.00000 0.981387
7480.00000 0.981367
7490.00000 0.98137
7500.00000 0.981396
7510.00000 0.981442
7520.00000 0.981507
7530.00000 0.981587
7540.00000 0.981678
7550.00000 0.981777
7560.00000 0.981879
7570.00000 0.98198
7580.00000 0.982078
7590.00000 0.982169
7600.00000 0.982253
7610.00000 0.982328
7620.00000 0.982392
7630.00000 0.982447
7640.00000 0.982492
7650.00000 0.982525
7660.00000 0.982548
7670.00000 0.982558
7680.00000 0.982555
7690.00000 0.982537
7700.00000 0.982503
7710.00000 0.982452
7720.00000 0.982382
7730.00000 0.982295
7740.00000 0.982191
7750.00000 0.982072
7760.00000 0.981944
7770.00000 0.98181
7780.00000 0.981678
7790.00000 0.981557
7800.00000 0.981453
7810.00000 0.981376
7820.00000 0.981334
7830.00000 0.981333
7840.00000 0.981378
7850.00000 0.98147
7860.00000 0.981609
7870.00000 0.981791
7880.00000 0.982008
7890.00000 0.98225
7900.00000 0.982503
7910.00000 0.982751
7920.00000 0.982979
7930.00000 0.983171
7940.00000 0.983311
7950.00000 0.983389
7960.00000 0.983395
7970.00000 0.983327
7980.00000 0.983187
7990.00000 0.982982
8000.00000 0.982726
8010.00000 0.982437
8020.00000 0.982136
8030.00000 0.981845
8040.00000 0.981588
8050.00000 0.981386
8060.00000 0.981256
8070.00000 0.981209
8080.00000 0.981251
8090.00000 0.981379
8100.00000 0.981581
8110.00000 0.981839
8120.00000 0.982127
8130.00000 0.982417
8140.00000 0.982677
8150.00000 0.982879
8160.00000 0.982997
8170.00000 0.983016
8180.00000 0.98293
8190.00000 0.982743
8200.00000 0.982474
8210.00000 0.982152
8220.00000 0.981816
8230.00000 0.981504
8240.00000 0.981258
8250.00000 0.981108
8260.00000 0.981071
8270.00000 0.981147
8280.00000 0.981313
8290.00000 0.981525
8300.00000 0.981723
8310.00000 0.98184
8320.00000 0.981816
8330.00000 0.981616
8340.00000 0.981252
8350.00000 0.980795
8360.00000 0.980374
8370.00000 0.980165
8380.00000 0.980322
8390.00000 0.980868
8400.00000 0.981482
8410.00000 0.981174
8420.00000 0.977816
8430.00000 0.967581
8440.00000 0.944595
8450.00000 0.90147
8460.00000 0.831659
8470.00000 0.733646
8480.00000 0.614441
8490.00000 0.488413
8500.00000 0.371009
8510.00000 0.272447
8520.00000 0.195851
8530.00000 0.139321
8540.00000 0.0988673
8550.00000 0.0703669
8560.00000 0.0503968
8570.00000 0.036389
8580.00000 0.0265134
8590.00000 0.0195002
8600.00000 0.0144774
8610.00000 0.0108496
8620.00000 0.0082033
8630.00000 0.0062554
8640.00000 0.004809
8650.00000 0.0037258
8660.00000 0.0029079
8670.00000 0.0022856
8680.00000 0.0018084
8690.00000 0.0014401
8700.00000 0.0011537
8710.00000 0.0009297
8720.00000 0.0007534
8730.00000 0.0006138
8740.00000 0.0005026
8750.00000 0.0004135
8760.00000 0.0003419
8770.00000 0.0002839
8780.00000 0.0002368
8790.00000 0.0001984
8800.00000 0.0001669
8810.00000 0.0001409
8820.00000 0.0001194
8830.00000 0.0001016
8840.00000 8.68e-05
8850.00000 7.43e-05
8860.00000 6.39e-05
8870.00000 5.51e-05
8880.00000 4.77e-05
8890.00000 4.14e-05
8900.00000 3.6e-05
8910.00000 3.14e-05
8920.00000 2.75e-05
8930.00000 2.42e-05
8940.00000 2.13e-05
8950.00000 1.88e-05
8960.00000 1.66e-05
8970.00000 1.47e-05
8980.00000 1.31e-05
8990.00000 1.17e-05
9000.00000 1.04e-05
9900.00000 0.0
