# %ECSV 0.9
# ---
# datatype:
# - {name: wavelength, unit: Angstrom, datatype: float32}
# - {name: response, datatype: float32}
# meta: !!omap
# - {band_name: F0861}
# - {group_name: JPLUS}
wavelength response
8190.00000 0.0
8195.00000 5.8e-06
8200.00000 6.6e-06
8205.00000 7.5e-06
8210.00000 8.6e-06
8215.00000 9.9e-06
8220.00000 1.13e-05
8225.00000 1.31e-05
8230.00000 1.52e-05
8235.00000 1.78e-05
8240.00000 2.1e-05
8245.00000 2.46e-05
8250.00000 2.91e-05
8255.00000 3.46e-05
8260.00000 4.12e-05
8265.00000 4.94e-05
8270.00000 5.96e-05
8275.00000 7.22e-05
8280.00000 8.79e-05
8285.00000 0.0001078
8290.00000 0.0001329
8295.00000 0.0001649
8300.00000 0.0002059
8305.00000 0.0002608
8310.00000 0.000333
8315.00000 0.0004249
8320.00000 0.0005465
8325.00000 0.0007086
8330.00000 0.0009269
8335.00000 0.0012236
8340.00000 0.001631
8345.00000 0.0021965
8350.00000 0.0029907
8355.00000 0.0041196
8360.00000 0.0057453
8365.00000 0.0081189
8370.00000 0.0116349
8375.00000 0.0169212
8380.00000 0.0249884
8385.00000 0.037474
8390.00000 0.0570221
8395.00000 0.0878076
8400.00000 0.13604
8405.00000 0.209613
8410.00000 0.315763
8415.00000 0.454238
8420.00000 0.609741
8425.00000 0.758159
8430.00000 0.867151
8435.00000 0.928704
8440.00000 0.957297
8445.00000 0.967189
8450.00000 0.969016
8455.00000 0.968839
8460.00000 0.968711
8465.00000 0.969159
8470.00000 0.96995
8475.00000 0.970686
8480.00000 0.971069
8485.00000 0.970989
8490.00000 0.970505
8495.00000 0.969787
8500.00000 0.96904
8505.00000 0.968453
8510.00000 0.968156
8515.00000 0.968213
8520.00000 0.968621
8525.00000 0.969327
8530.00000 0.970244
8535.00000 0.971273
8540.00000 0.972319
8545.00000 0.973306
8550.00000 0.974182
8555.00000 0.97463
8560.00000 0.974938
8565.00000 0.975125
8570.00000 0.975216
8575.00000 0.975242
8580.00000 0.975229
8585.00000 0.9752
8590.00000 0.975167
8595.00000 0.975138
8600.00000 0.975112
8605.00000 0.975088
8610.00000 0.975064
8615.00000 0.975037
8620.00000 0.97501
8625.00000 0.974985
8630.00000 0.974965
8635.00000 0.97495
8640.00000 0.974937
8645.00000 0.974914
8650.00000 0.974862
8655.00000 0.974756
8660.00000 0.974565
8665.00000 0.974262
8670.00000 0.973824
8675.00000 0.973262
8680.00000 0.972574
8685.00000 0.97177
8690.00000 0.970926
8695.00000 0.97012
8700.00000 0.969443
8705.00000 0.968989
8710.00000 0.968835
8715.00000 0.96903
8720.00000 0.969575
8725.00000 0.970415
8730.00000 0.971434
8735.00000 0.972469
8740.00000 0.973332
8745.00000 0.973853
8750.00000 0.97393
8755.00000 0.973582
8760.00000 0.972984
8765.00000 0.972452
8770.00000 0.972344
8775.00000 0.972817
8780.00000 0.973363
8785.00000 0.97204
8790.00000 0.964391
8795.00000 0.943476
8800.00000 0.899267
8805.00000 0.819775
8810.00000 0.704611
8815.00000 0.566155
8820.00000 0.426199
8825.00000 0.304363
8830.00000 0.209916
8835.00000 0.142275
8840.00000 0.0960375
8845.00000 0.0651245
8850.00000 0.0445851
8855.00000 0.0308926
8860.00000 0.0216851
8865.00000 0.015423
8870.00000 0.0111109
8875.00000 0.0081034
8880.00000 0.0059795
8885.00000 0.0044985
8890.00000 0.0034176
8895.00000 0.0026004
8900.00000 0.001997
8905.00000 0.0015472
8910.00000 0.0012087
8915.00000 0.0009517
8920.00000 0.000755
8925.00000 0.0006032
8930.00000 0.0004851
8935.00000 0.0003927
8940.00000 0.0003199
8945.00000 0.0002636
8950.00000 0.0002183
8955.00000 0.0001808
8960.00000 0.0001506
8965.00000 0.000126
8970.00000 0.000106
8975.00000 8.96e-05
8980.00000 7.6e-05
8985.00000 6.48e-05
8990.00000 5.55e-05
8995.00000 4.77e-05
9000.00000 4.12e-05
9005.00000 3.58e-05
9010.00000 3.12e-05
9015.00000 2.72e-05
9020.00000 2.38e-05
9025.00000 2.09e-05
9030.00000 1.85e-05
9035.00000 1.63e-05
9040.00000 1.45e-05
9045.00000 1.29e-05
9050.00000 1.15e-05
9055.00000 1.03e-05
9060.00000 9.3e-06
9065.00000 8.4e-06
9070.00000 7.6e-06
9075.00000 6.8e-06
9080.00000 6.2e-06
9085.00000 5.6e-06
9090.00000 5.2e-06
9095.00000 4.7e-06
9100.00000 4.3e-06
9105.00000 4e-06
9110.00000 3.7e-06
9115.00000 3.4e-06
9120.00000 0.0
