# %ECSV 0.9
# ---
# datatype:
# - {name: wavelength, unit: Angstrom, datatype: float32}
# - {name: response, datatype: float32}
# meta: !!omap
# - {band_name: CaT}
# - {group_name: GMOS_S}
wavelength response
6595.20020 0.0
7328.00000 0.004
7330.00000 0.004
7332.00000 0.004
7334.00000 0.004
7336.00000 0.004
7338.00000 0.004
7340.00000 0.005
7342.00000 0.005
7344.00000 0.005
7346.00000 0.005
7348.00000 0.005
7350.00000 0.006
7352.00000 0.006
7354.00000 0.006
7356.00000 0.006
7358.00000 0.006
7360.00000 0.007
7362.00000 0.007
7364.00000 0.007
7366.00000 0.007
7368.00000 0.008
7370.00000 0.008
7372.00000 0.008
7374.00000 0.009
7376.00000 0.009
7378.00000 0.009
7380.00000 0.009
7382.00000 0.01
7384.00000 0.01
7386.00000 0.011
7388.00000 0.011
7390.00000 0.011
7392.00000 0.012
7394.00000 0.012
7396.00000 0.013
7398.00000 0.013
7400.00000 0.014
7402.00000 0.014
7404.00000 0.014
7406.00000 0.015
7408.00000 0.015
7410.00000 0.016
7412.00000 0.017
7414.00000 0.017
7416.00000 0.018
7418.00000 0.018
7420.00000 0.019
7422.00000 0.02
7424.00000 0.02
7426.00000 0.021
7428.00000 0.022
7430.00000 0.022
7432.00000 0.023
7434.00000 0.024
7436.00000 0.025
7438.00000 0.025
7440.00000 0.026
7442.00000 0.027
7444.00000 0.028
7446.00000 0.029
7448.00000 0.03
7450.00000 0.031
7452.00000 0.032
7454.00000 0.033
7456.00000 0.034
7458.00000 0.035
7460.00000 0.036
7462.00000 0.037
7464.00000 0.038
7466.00000 0.04
7468.00000 0.041
7470.00000 0.042
7472.00000 0.043
7474.00000 0.045
7476.00000 0.046
7478.00000 0.047
7480.00000 0.049
7482.00000 0.05
7484.00000 0.051
7486.00000 0.053
7488.00000 0.054
7490.00000 0.056
7492.00000 0.058
7494.00000 0.059
7496.00000 0.061
7498.00000 0.062
7500.00000 0.064
7502.00000 0.066
7504.00000 0.068
7506.00000 0.07
7508.00000 0.072
7510.00000 0.073
7512.00000 0.075
7514.00000 0.077
7516.00000 0.079
7518.00000 0.082
7520.00000 0.084
7522.00000 0.086
7524.00000 0.088
7526.00000 0.09
7528.00000 0.092
7530.00000 0.095
7532.00000 0.097
7534.00000 0.099
7536.00000 0.102
7538.00000 0.104
7540.00000 0.106
7542.00000 0.109
7544.00000 0.112
7546.00000 0.114
7548.00000 0.117
7550.00000 0.119
7552.00000 0.122
7554.00000 0.125
7556.00000 0.128
7558.00000 0.131
7560.00000 0.134
7562.00000 0.137
7564.00000 0.139
7566.00000 0.142
7568.00000 0.145
7570.00000 0.148
7572.00000 0.152
7574.00000 0.155
7576.00000 0.158
7578.00000 0.161
7580.00000 0.164
7582.00000 0.167
7584.00000 0.171
7586.00000 0.174
7588.00000 0.178
7590.00000 0.181
7592.00000 0.184
7594.00000 0.188
7596.00000 0.191
7598.00000 0.194
7600.00000 0.198
7602.00000 0.202
7604.00000 0.205
7606.00000 0.209
7608.00000 0.212
7610.00000 0.216
7612.00000 0.22
7614.00000 0.223
7616.00000 0.227
7618.00000 0.23
7620.00000 0.234
7622.00000 0.238
7624.00000 0.242
7626.00000 0.245
7628.00000 0.249
7630.00000 0.253
7632.00000 0.257
7634.00000 0.261
7636.00000 0.265
7638.00000 0.269
7640.00000 0.272
7642.00000 0.276
7644.00000 0.28
7646.00000 0.284
7648.00000 0.289
7650.00000 0.292
7652.00000 0.296
7654.00000 0.3
7656.00000 0.304
7658.00000 0.307
7660.00000 0.312
7662.00000 0.316
7664.00000 0.32
7666.00000 0.324
7668.00000 0.328
7670.00000 0.331
7672.00000 0.335
7674.00000 0.339
7676.00000 0.343
7678.00000 0.347
7680.00000 0.351
7682.00000 0.355
7684.00000 0.358
7686.00000 0.362
7688.00000 0.366
7690.00000 0.37
7692.00000 0.374
7694.00000 0.377
7696.00000 0.381
7698.00000 0.385
7700.00000 0.388
7702.00000 0.392
7704.00000 0.396
7706.00000 0.4
7708.00000 0.404
7710.00000 0.407
7712.00000 0.411
7714.00000 0.415
7716.00000 0.419
7718.00000 0.422
7720.00000 0.426
7722.00000 0.43
7724.00000 0.433
7726.00000 0.437
7728.00000 0.441
7730.00000 0.444
7732.00000 0.448
7734.00000 0.452
7736.00000 0.455
7738.00000 0.459
7740.00000 0.462
7742.00000 0.465
7744.00000 0.468
7746.00000 0.472
7748.00000 0.475
7750.00000 0.478
7752.00000 0.481
7754.00000 0.485
7756.00000 0.488
7758.00000 0.491
7760.00000 0.495
7762.00000 0.498
7764.00000 0.501
7766.00000 0.505
7768.00000 0.508
7770.00000 0.511
7772.00000 0.514
7774.00000 0.518
7776.00000 0.521
7778.00000 0.523
7780.00000 0.526
7782.00000 0.53
7784.00000 0.532
7786.00000 0.536
7788.00000 0.539
7790.00000 0.542
7792.00000 0.545
7794.00000 0.548
7796.00000 0.552
7798.00000 0.555
7800.00000 0.557
7802.00000 0.56
7804.00000 0.564
7806.00000 0.566
7808.00000 0.569
7810.00000 0.572
7812.00000 0.574
7814.00000 0.577
7816.00000 0.58
7818.00000 0.582
7820.00000 0.585
7822.00000 0.588
7824.00000 0.59
7826.00000 0.594
7828.00000 0.597
7830.00000 0.598
7832.00000 0.602
7834.00000 0.604
7836.00000 0.607
7838.00000 0.61
7840.00000 0.611
7842.00000 0.615
7844.00000 0.617
7846.00000 0.619
7848.00000 0.624
7850.00000 0.626
7852.00000 0.629
7854.00000 0.632
7856.00000 0.634
7858.00000 0.637
7860.00000 0.64
7862.00000 0.642
7864.00000 0.645
7866.00000 0.647
7868.00000 0.65
7870.00000 0.652
7872.00000 0.655
7874.00000 0.656
7876.00000 0.66
7878.00000 0.661
7880.00000 0.664
7882.00000 0.666
7884.00000 0.669
7886.00000 0.672
7888.00000 0.673
7890.00000 0.675
7892.00000 0.678
7894.00000 0.681
7896.00000 0.683
7898.00000 0.687
7900.00000 0.688
7902.00000 0.69
7904.00000 0.693
7906.00000 0.695
7908.00000 0.696
7910.00000 0.7
7912.00000 0.702
7914.00000 0.705
7916.00000 0.707
7918.00000 0.709
7920.00000 0.712
7922.00000 0.715
7924.00000 0.717
7926.00000 0.719
7928.00000 0.721
7930.00000 0.724
7932.00000 0.726
7934.00000 0.728
7936.00000 0.73
7938.00000 0.733
7940.00000 0.735
7942.00000 0.737
7944.00000 0.74
7946.00000 0.742
7948.00000 0.743
7950.00000 0.746
7952.00000 0.748
7954.00000 0.75
7956.00000 0.752
7958.00000 0.754
7960.00000 0.756
7962.00000 0.757
7964.00000 0.76
7966.00000 0.762
7968.00000 0.764
7970.00000 0.767
7972.00000 0.769
7974.00000 0.77
7976.00000 0.771
7978.00000 0.775
7980.00000 0.777
7982.00000 0.779
7984.00000 0.781
7986.00000 0.782
7988.00000 0.786
7990.00000 0.787
7992.00000 0.789
7994.00000 0.792
7996.00000 0.794
7998.00000 0.796
8000.00000 0.798
8002.00000 0.8
8004.00000 0.802
8006.00000 0.803
8008.00000 0.805
8010.00000 0.808
8012.00000 0.808
8014.00000 0.81
8016.00000 0.812
8018.00000 0.814
8020.00000 0.815
8022.00000 0.817
8024.00000 0.819
8026.00000 0.819
8028.00000 0.821
8030.00000 0.823
8032.00000 0.824
8034.00000 0.826
8036.00000 0.828
8038.00000 0.83
8040.00000 0.831
8042.00000 0.832
8044.00000 0.833
8046.00000 0.835
8048.00000 0.836
8050.00000 0.839
8052.00000 0.838
8054.00000 0.842
8056.00000 0.843
8058.00000 0.845
8060.00000 0.846
8062.00000 0.847
8064.00000 0.848
8066.00000 0.85
8068.00000 0.853
8070.00000 0.853
8072.00000 0.856
8074.00000 0.855
8076.00000 0.857
8078.00000 0.859
8080.00000 0.861
8082.00000 0.861
8084.00000 0.862
8086.00000 0.863
8088.00000 0.863
8090.00000 0.867
8092.00000 0.866
8094.00000 0.868
8096.00000 0.867
8098.00000 0.869
8100.00000 0.869
8102.00000 0.87
8104.00000 0.87
8106.00000 0.871
8108.00000 0.873
8110.00000 0.873
8112.00000 0.874
8114.00000 0.874
8116.00000 0.874
8118.00000 0.876
8120.00000 0.876
8122.00000 0.875
8124.00000 0.877
8126.00000 0.88
8128.00000 0.879
8130.00000 0.88
8132.00000 0.879
8134.00000 0.881
8136.00000 0.882
8138.00000 0.881
8140.00000 0.883
8142.00000 0.884
8144.00000 0.885
8146.00000 0.886
8148.00000 0.886
8150.00000 0.885
8152.00000 0.886
8154.00000 0.889
8156.00000 0.887
8158.00000 0.887
8160.00000 0.887
8162.00000 0.888
8164.00000 0.889
8166.00000 0.889
8168.00000 0.89
8170.00000 0.89
8172.00000 0.889
8174.00000 0.89
8176.00000 0.89
8178.00000 0.891
8180.00000 0.891
8182.00000 0.89
8184.00000 0.891
8186.00000 0.89
8188.00000 0.891
8190.00000 0.889
8192.00000 0.89
8194.00000 0.89
8196.00000 0.891
8198.00000 0.891
8200.00000 0.89
8202.00000 0.891
8204.00000 0.891
8206.00000 0.89
8208.00000 0.891
8210.00000 0.891
8212.00000 0.892
8214.00000 0.891
8216.00000 0.892
8218.00000 0.892
8220.00000 0.891
8222.00000 0.892
8224.00000 0.893
8226.00000 0.891
8228.00000 0.892
8230.00000 0.891
8232.00000 0.892
8234.00000 0.892
8236.00000 0.891
8238.00000 0.892
8240.00000 0.893
8242.00000 0.893
8244.00000 0.893
8246.00000 0.891
8248.00000 0.893
8250.00000 0.892
8252.00000 0.891
8254.00000 0.891
8256.00000 0.892
8258.00000 0.892
8260.00000 0.891
8262.00000 0.891
8264.00000 0.891
8266.00000 0.89
8268.00000 0.89
8270.00000 0.89
8272.00000 0.891
8274.00000 0.89
8276.00000 0.888
8278.00000 0.888
8280.00000 0.889
8282.00000 0.89
8284.00000 0.889
8286.00000 0.889
8288.00000 0.887
8290.00000 0.889
8292.00000 0.89
8294.00000 0.888
8296.00000 0.888
8298.00000 0.89
8300.00000 0.887
8302.00000 0.889
8304.00000 0.89
8306.00000 0.889
8308.00000 0.891
8310.00000 0.889
8312.00000 0.89
8314.00000 0.889
8316.00000 0.891
8318.00000 0.891
8320.00000 0.89
8322.00000 0.89
8324.00000 0.891
8326.00000 0.891
8328.00000 0.891
8330.00000 0.891
8332.00000 0.892
8334.00000 0.89
8336.00000 0.89
8338.00000 0.89
8340.00000 0.891
8342.00000 0.891
8344.00000 0.891
8346.00000 0.89
8348.00000 0.89
8350.00000 0.891
8352.00000 0.889
8354.00000 0.89
8356.00000 0.89
8358.00000 0.889
8360.00000 0.89
8362.00000 0.889
8364.00000 0.891
8366.00000 0.891
8368.00000 0.893
8370.00000 0.892
8372.00000 0.892
8374.00000 0.892
8376.00000 0.894
8378.00000 0.893
8380.00000 0.895
8382.00000 0.895
8384.00000 0.895
8386.00000 0.896
8388.00000 0.897
8390.00000 0.898
8392.00000 0.898
8394.00000 0.897
8396.00000 0.897
8398.00000 0.898
8400.00000 0.898
8402.00000 0.896
8404.00000 0.898
8406.00000 0.899
8408.00000 0.898
8410.00000 0.898
8412.00000 0.899
8414.00000 0.899
8416.00000 0.9
8418.00000 0.898
8420.00000 0.898
8422.00000 0.899
8424.00000 0.9
8426.00000 0.9
8428.00000 0.901
8430.00000 0.901
8432.00000 0.901
8434.00000 0.9
8436.00000 0.902
8438.00000 0.902
8440.00000 0.902
8442.00000 0.901
8444.00000 0.903
8446.00000 0.902
8448.00000 0.904
8450.00000 0.904
8452.00000 0.903
8454.00000 0.904
8456.00000 0.904
8458.00000 0.907
8460.00000 0.905
8462.00000 0.907
8464.00000 0.905
8466.00000 0.907
8468.00000 0.909
8470.00000 0.91
8472.00000 0.908
8474.00000 0.909
8476.00000 0.91
8478.00000 0.909
8480.00000 0.911
8482.00000 0.913
8484.00000 0.913
8486.00000 0.912
8488.00000 0.913
8490.00000 0.912
8492.00000 0.913
8494.00000 0.914
8496.00000 0.914
8498.00000 0.915
8500.00000 0.915
8502.00000 0.915
8504.00000 0.916
8506.00000 0.916
8508.00000 0.916
8510.00000 0.917
8512.00000 0.917
8514.00000 0.916
8516.00000 0.918
8518.00000 0.918
8520.00000 0.918
8522.00000 0.918
8524.00000 0.919
8526.00000 0.919
8528.00000 0.92
8530.00000 0.92
8532.00000 0.921
8534.00000 0.92
8536.00000 0.921
8538.00000 0.922
8540.00000 0.922
8542.00000 0.922
8544.00000 0.922
8546.00000 0.923
8548.00000 0.923
8550.00000 0.924
8552.00000 0.924
8554.00000 0.924
8556.00000 0.925
8558.00000 0.925
8560.00000 0.925
8562.00000 0.926
8564.00000 0.926
8566.00000 0.926
8568.00000 0.927
8570.00000 0.927
8572.00000 0.927
8574.00000 0.927
8576.00000 0.928
8578.00000 0.928
8580.00000 0.929
8582.00000 0.929
8584.00000 0.929
8586.00000 0.929
8588.00000 0.93
8590.00000 0.93
8592.00000 0.93
8594.00000 0.931
8596.00000 0.931
8598.00000 0.931
8600.00000 0.932
8602.00000 0.932
8604.00000 0.932
8606.00000 0.932
8608.00000 0.933
8610.00000 0.933
8612.00000 0.933
8614.00000 0.934
8616.00000 0.934
8618.00000 0.934
8620.00000 0.935
8622.00000 0.935
8624.00000 0.935
8626.00000 0.936
8628.00000 0.936
8630.00000 0.936
8632.00000 0.936
8634.00000 0.937
8636.00000 0.937
8638.00000 0.937
8640.00000 0.938
8642.00000 0.938
8644.00000 0.938
8646.00000 0.939
8648.00000 0.939
8650.00000 0.94
8652.00000 0.939
8654.00000 0.94
8656.00000 0.94
8658.00000 0.94
8660.00000 0.941
8662.00000 0.941
8664.00000 0.941
8666.00000 0.942
8668.00000 0.942
8670.00000 0.942
8672.00000 0.943
8674.00000 0.943
8676.00000 0.943
8678.00000 0.943
8680.00000 0.944
8682.00000 0.944
8684.00000 0.944
8686.00000 0.945
8688.00000 0.945
8690.00000 0.945
8692.00000 0.946
8694.00000 0.946
8696.00000 0.946
8698.00000 0.947
8700.00000 0.947
8702.00000 0.947
8704.00000 0.947
8706.00000 0.948
8708.00000 0.948
8710.00000 0.948
8712.00000 0.949
8714.00000 0.949
8716.00000 0.949
8718.00000 0.95
8720.00000 0.95
8722.00000 0.95
8724.00000 0.95
8726.00000 0.951
8728.00000 0.951
8730.00000 0.952
8732.00000 0.952
8734.00000 0.953
8736.00000 0.952
8738.00000 0.953
8740.00000 0.953
8742.00000 0.954
8744.00000 0.954
8746.00000 0.954
8748.00000 0.954
8750.00000 0.955
8752.00000 0.955
8754.00000 0.955
8756.00000 0.956
8758.00000 0.956
8760.00000 0.956
8762.00000 0.957
8764.00000 0.957
8766.00000 0.957
8768.00000 0.958
8770.00000 0.958
8772.00000 0.958
8774.00000 0.958
8776.00000 0.959
8778.00000 0.959
8780.00000 0.96
8782.00000 0.96
8784.00000 0.96
8786.00000 0.96
8788.00000 0.961
8790.00000 0.961
8792.00000 0.961
8794.00000 0.961
8796.00000 0.962
8798.00000 0.962
8800.00000 0.962
8802.00000 0.963
8804.00000 0.963
8806.00000 0.963
8808.00000 0.963
8810.00000 0.963
8812.00000 0.964
8814.00000 0.964
8816.00000 0.964
8818.00000 0.965
8820.00000 0.965
8822.00000 0.965
8824.00000 0.965
8826.00000 0.965
8828.00000 0.966
8830.00000 0.966
8832.00000 0.966
8834.00000 0.966
8836.00000 0.966
8838.00000 0.967
8840.00000 0.967
8842.00000 0.967
8844.00000 0.967
8846.00000 0.967
8848.00000 0.968
8850.00000 0.968
8852.00000 0.968
8854.00000 0.968
8856.00000 0.968
8858.00000 0.968
8860.00000 0.968
8862.00000 0.968
8864.00000 0.968
8866.00000 0.969
8868.00000 0.969
8870.00000 0.969
8872.00000 0.969
8874.00000 0.969
8876.00000 0.969
8878.00000 0.969
8880.00000 0.969
8882.00000 0.969
8884.00000 0.969
8886.00000 0.969
8888.00000 0.969
8890.00000 0.969
8892.00000 0.969
8894.00000 0.969
8896.00000 0.969
8898.00000 0.969
8900.00000 0.969
8902.00000 0.969
8904.00000 0.969
8906.00000 0.969
8908.00000 0.969
8910.00000 0.969
8912.00000 0.969
8914.00000 0.969
8916.00000 0.969
8918.00000 0.968
8920.00000 0.969
8922.00000 0.968
8924.00000 0.968
8926.00000 0.968
8928.00000 0.968
8930.00000 0.968
8932.00000 0.968
8934.00000 0.968
8936.00000 0.968
8938.00000 0.967
8940.00000 0.967
8942.00000 0.967
8944.00000 0.967
8946.00000 0.967
8948.00000 0.967
8950.00000 0.966
8952.00000 0.966
8954.00000 0.966
8956.00000 0.966
8958.00000 0.966
8960.00000 0.965
8962.00000 0.965
8964.00000 0.965
8966.00000 0.965
8968.00000 0.964
8970.00000 0.964
8972.00000 0.964
8974.00000 0.964
8976.00000 0.963
8978.00000 0.964
8980.00000 0.963
8982.00000 0.963
8984.00000 0.963
8986.00000 0.962
8988.00000 0.962
8990.00000 0.962
8992.00000 0.962
8994.00000 0.961
8996.00000 0.961
8998.00000 0.961
9000.00000 0.961
9002.00000 0.961
9004.00000 0.96
9006.00000 0.96
9008.00000 0.96
9010.00000 0.96
9012.00000 0.96
9014.00000 0.959
9016.00000 0.959
9018.00000 0.959
9020.00000 0.959
9022.00000 0.959
9024.00000 0.958
9026.00000 0.958
9028.00000 0.958
9030.00000 0.958
9032.00000 0.958
9034.00000 0.958
9036.00000 0.958
9038.00000 0.958
9040.00000 0.958
9042.00000 0.958
9044.00000 0.957
9046.00000 0.957
9048.00000 0.957
9050.00000 0.957
9052.00000 0.957
9054.00000 0.957
9056.00000 0.957
9058.00000 0.957
9060.00000 0.957
9062.00000 0.957
9064.00000 0.957
9066.00000 0.957
9068.00000 0.957
9070.00000 0.957
9072.00000 0.957
9074.00000 0.957
9076.00000 0.957
9078.00000 0.958
9080.00000 0.957
9082.00000 0.957
9084.00000 0.958
9086.00000 0.958
9088.00000 0.958
9090.00000 0.958
9092.00000 0.958
9094.00000 0.958
9096.00000 0.958
9098.00000 0.958
9100.00000 0.959
9102.00000 0.959
9104.00000 0.959
9106.00000 0.959
9108.00000 0.959
9110.00000 0.959
9112.00000 0.959
9114.00000 0.959
9116.00000 0.959
9118.00000 0.96
9120.00000 0.96
9122.00000 0.96
9124.00000 0.96
9126.00000 0.96
9128.00000 0.96
9130.00000 0.96
9132.00000 0.961
9134.00000 0.961
9136.00000 0.961
9138.00000 0.961
9140.00000 0.96
9142.00000 0.96
9144.00000 0.959
9146.00000 0.959
9148.00000 0.959
9150.00000 0.958
9152.00000 0.959
9154.00000 0.959
9156.00000 0.959
9158.00000 0.958
9160.00000 0.958
9162.00000 0.957
9164.00000 0.957
9166.00000 0.956
9168.00000 0.956
9170.00000 0.955
9172.00000 0.954
9174.00000 0.953
9176.00000 0.953
9178.00000 0.952
9180.00000 0.951
9182.00000 0.95
9184.00000 0.948
9186.00000 0.947
9188.00000 0.946
9190.00000 0.944
9192.00000 0.942
9194.00000 0.941
9196.00000 0.939
9198.00000 0.937
9200.00000 0.935
9202.00000 0.933
9204.00000 0.931
9206.00000 0.928
9208.00000 0.926
9210.00000 0.923
9212.00000 0.921
9214.00000 0.918
9216.00000 0.915
9218.00000 0.912
9220.00000 0.909
9222.00000 0.905
9224.00000 0.902
9226.00000 0.898
9228.00000 0.894
9230.00000 0.891
9232.00000 0.887
9234.00000 0.882
9236.00000 0.878
9238.00000 0.873
9240.00000 0.869
9242.00000 0.863
9244.00000 0.858
9246.00000 0.853
9248.00000 0.848
9250.00000 0.843
9252.00000 0.837
9254.00000 0.831
9256.00000 0.825
9258.00000 0.819
9260.00000 0.812
9262.00000 0.806
9264.00000 0.799
9266.00000 0.792
9268.00000 0.785
9270.00000 0.778
9272.00000 0.772
9274.00000 0.764
9276.00000 0.757
9278.00000 0.749
9280.00000 0.742
9282.00000 0.734
9284.00000 0.725
9286.00000 0.717
9288.00000 0.709
9290.00000 0.701
9292.00000 0.693
9294.00000 0.684
9296.00000 0.676
9298.00000 0.667
9300.00000 0.659
9302.00000 0.65
9304.00000 0.642
9306.00000 0.633
9308.00000 0.624
9310.00000 0.615
9312.00000 0.606
9314.00000 0.597
9316.00000 0.588
9318.00000 0.579
9320.00000 0.57
9322.00000 0.561
9324.00000 0.553
9326.00000 0.544
9328.00000 0.535
9330.00000 0.527
9332.00000 0.518
9334.00000 0.509
9336.00000 0.5
9338.00000 0.491
9340.00000 0.483
9342.00000 0.475
9344.00000 0.466
9346.00000 0.457
9348.00000 0.449
9350.00000 0.441
9352.00000 0.432
9354.00000 0.425
9356.00000 0.416
9358.00000 0.409
9360.00000 0.401
9362.00000 0.393
9364.00000 0.385
9366.00000 0.377
9368.00000 0.37
9370.00000 0.362
9372.00000 0.354
9374.00000 0.347
9376.00000 0.34
9378.00000 0.333
9380.00000 0.326
9382.00000 0.319
9384.00000 0.312
9386.00000 0.306
9388.00000 0.299
9390.00000 0.293
9392.00000 0.286
9394.00000 0.281
9396.00000 0.274
9398.00000 0.268
9400.00000 0.262
9402.00000 0.257
9404.00000 0.251
9406.00000 0.246
9408.00000 0.24
9410.00000 0.236
9412.00000 0.23
9414.00000 0.225
9416.00000 0.22
9418.00000 0.215
9420.00000 0.211
9422.00000 0.206
9424.00000 0.201
9426.00000 0.197
9428.00000 0.193
9430.00000 0.189
9432.00000 0.184
9434.00000 0.18
9436.00000 0.177
9438.00000 0.173
9440.00000 0.169
9442.00000 0.165
9444.00000 0.162
9446.00000 0.158
9448.00000 0.155
9450.00000 0.151
9452.00000 0.148
9454.00000 0.145
9456.00000 0.142
9458.00000 0.138
9460.00000 0.135
9462.00000 0.133
9464.00000 0.13
9466.00000 0.127
9468.00000 0.124
9470.00000 0.121
9472.00000 0.119
9474.00000 0.116
9476.00000 0.114
9478.00000 0.111
9480.00000 0.109
9482.00000 0.106
9484.00000 0.104
9486.00000 0.102
9488.00000 0.1
9490.00000 0.098
9492.00000 0.096
9494.00000 0.093
9496.00000 0.092
9498.00000 0.09
9500.00000 0.088
9502.00000 0.086
9504.00000 0.084
9506.00000 0.083
9508.00000 0.081
9510.00000 0.079
9512.00000 0.077
9514.00000 0.076
9516.00000 0.074
9518.00000 0.073
9520.00000 0.072
9522.00000 0.07
9524.00000 0.069
9526.00000 0.067
9528.00000 0.066
9530.00000 0.065
9532.00000 0.064
9534.00000 0.062
9536.00000 0.061
9538.00000 0.06
9540.00000 0.059
9542.00000 0.058
9544.00000 0.056
9546.00000 0.055
9548.00000 0.054
9550.00000 0.053
9552.00000 0.052
9554.00000 0.051
9556.00000 0.05
9558.00000 0.049
9560.00000 0.048
9562.00000 0.048
9564.00000 0.047
9566.00000 0.046
9568.00000 0.045
9570.00000 0.044
9572.00000 0.043
9574.00000 0.043
9576.00000 0.042
9578.00000 0.041
9580.00000 0.04
9582.00000 0.039
9584.00000 0.039
9586.00000 0.038
9588.00000 0.037
9590.00000 0.036
9592.00000 0.036
9594.00000 0.035
9596.00000 0.035
9598.00000 0.034
9600.00000 0.034
9602.00000 0.033
9604.00000 0.032
9606.00000 0.032
9608.00000 0.031
9610.00000 0.031
9612.00000 0.03
9614.00000 0.03
9616.00000 0.029
9618.00000 0.029
9620.00000 0.028
9622.00000 0.028
9624.00000 0.027
9626.00000 0.027
9628.00000 0.026
9630.00000 0.026
9632.00000 0.025
9634.00000 0.025
9636.00000 0.025
9638.00000 0.024
9640.00000 0.024
9642.00000 0.024
9644.00000 0.023
9646.00000 0.023
9648.00000 0.022
9650.00000 0.022
9652.00000 0.022
9654.00000 0.021
9656.00000 0.021
9658.00000 0.021
9660.00000 0.02
9662.00000 0.02
9664.00000 0.02
9666.00000 0.019
9668.00000 0.019
9670.00000 0.019
9672.00000 0.019
9674.00000 0.018
9676.00000 0.018
9678.00000 0.018
9680.00000 0.018
9682.00000 0.017
9684.00000 0.017
9686.00000 0.017
9688.00000 0.017
9690.00000 0.016
9692.00000 0.016
9694.00000 0.016
9696.00000 0.016
9698.00000 0.015
9700.00000 0.015
9702.00000 0.015
9704.00000 0.015
9706.00000 0.014
9708.00000 0.014
9710.00000 0.014
9712.00000 0.014
9714.00000 0.014
9716.00000 0.013
9718.00000 0.013
9720.00000 0.013
9722.00000 0.013
9724.00000 0.013
9726.00000 0.013
9728.00000 0.012
9730.00000 0.012
9732.00000 0.012
9734.00000 0.012
9736.00000 0.012
9738.00000 0.012
9740.00000 0.011
9742.00000 0.011
9744.00000 0.011
9746.00000 0.011
9748.00000 0.011
9750.00000 0.011
9752.00000 0.011
9754.00000 0.011
9756.00000 0.01
9758.00000 0.01
9760.00000 0.01
9762.00000 0.01
9764.00000 0.01
9766.00000 0.01
9768.00000 0.01
9770.00000 0.009
9772.00000 0.009
9774.00000 0.009
9776.00000 0.009
9778.00000 0.009
9780.00000 0.009
9782.00000 0.009
9784.00000 0.009
9786.00000 0.009
9788.00000 0.008
9790.00000 0.008
9792.00000 0.008
9794.00000 0.008
9796.00000 0.008
9798.00000 0.008
9800.00000 0.008
9802.00000 0.008
9804.00000 0.008
9806.00000 0.008
9808.00000 0.007
9810.00000 0.007
9812.00000 0.007
9814.00000 0.007
9816.00000 0.007
9818.00000 0.007
9820.00000 0.007
9822.00000 0.007
9824.00000 0.007
9826.00000 0.007
9828.00000 0.007
9830.00000 0.007
9832.00000 0.007
9834.00000 0.007
9836.00000 0.006
9838.00000 0.006
9840.00000 0.006
9842.00000 0.006
9844.00000 0.006
9846.00000 0.006
9848.00000 0.006
9850.00000 0.006
9852.00000 0.006
9854.00000 0.006
9856.00000 0.006
9858.00000 0.006
9860.00000 0.006
9862.00000 0.006
9864.00000 0.006
9866.00000 0.006
9868.00000 0.006
9870.00000 0.005
9872.00000 0.005
9874.00000 0.005
9876.00000 0.005
9878.00000 0.005
9880.00000 0.005
9882.00000 0.005
9884.00000 0.005
9886.00000 0.005
9888.00000 0.005
9890.00000 0.005
9892.00000 0.005
9894.00000 0.005
9896.00000 0.005
9898.00000 0.005
9900.00000 0.005
9902.00000 0.005
9904.00000 0.005
9906.00000 0.005
9908.00000 0.005
9910.00000 0.005
9912.00000 0.004
9914.00000 0.004
9916.00000 0.004
9918.00000 0.004
9920.00000 0.004
9922.00000 0.004
9924.00000 0.004
9926.00000 0.004
9928.00000 0.004
9930.00000 0.004
9932.00000 0.004
9934.00000 0.004
9936.00000 0.004
9938.00000 0.004
9940.00000 0.004
9942.00000 0.004
9944.00000 0.004
9946.00000 0.004
9948.00000 0.004
9950.00000 0.004
9952.00000 0.004
9954.00000 0.004
9956.00000 0.004
9958.00000 0.004
9960.00000 0.004
9962.00000 0.004
10958.20020 0.0
