# %ECSV 0.9
# ---
# datatype:
# - {name: wavelength, unit: Angstrom, datatype: float32}
# - {name: response, datatype: float32}
# meta: !!omap
# - {band_name: sloan_i}
# - {group_name: IMACS}
wavelength response
6017.13037 0.0
6685.70020 0.00011
6689.10010 0.00017
6692.39990 0.00019
6695.79980 0.00018
6699.10010 6e-05
6702.50000 0.00032
6705.89990 0.00042
6709.20020 0.00067
6712.60010 0.00076
6715.89990 0.0011
6719.29980 0.00133
6722.60010 0.00165
6726.00000 0.00192
6729.29980 0.00268
6732.70020 0.00322
6736.00000 0.00374
6739.39990 0.00408
6742.70020 0.00439
6746.10010 0.00441
6749.39990 0.00501
6752.79980 0.0055
6756.10010 0.00644
6759.39990 0.00724
6762.79980 0.00817
6766.10010 0.00903
6769.50000 0.01018
6772.79980 0.01148
6776.20020 0.01322
6779.50000 0.01483
6782.89990 0.01689
6786.20020 0.01881
6789.50000 0.02101
6792.89990 0.02295
6796.20020 0.02569
6799.60010 0.02812
6802.89990 0.03109
6806.20020 0.03401
6809.60010 0.03762
6812.89990 0.04114
6816.29980 0.04514
6819.60010 0.04936
6822.89990 0.05388
6826.29980 0.05866
6829.60010 0.0639
6833.00000 0.0691
6836.29980 0.07485
6839.60010 0.08089
6843.00000 0.08721
6846.29980 0.09393
6849.60010 0.10105
6853.00000 0.10835
6856.29980 0.11626
6859.60010 0.12416
6863.00000 0.13201
6866.29980 0.14054
6869.60010 0.14936
6873.00000 0.15857
6876.29980 0.16806
6879.60010 0.17798
6883.00000 0.18799
6886.29980 0.19814
6889.60010 0.20828
6892.89990 0.21901
6896.29980 0.23028
6899.60010 0.24128
6902.89990 0.25297
6906.20020 0.26492
6909.60010 0.27707
6912.89990 0.28888
6916.20020 0.3017
6919.60010 0.31378
6922.89990 0.32601
6926.20020 0.33799
6929.50000 0.34965
6932.89990 0.36132
6936.20020 0.37392
6939.50000 0.38559
6942.79980 0.39787
6946.10010 0.41032
6949.50000 0.42269
6952.79980 0.43343
6956.10010 0.44568
6959.39990 0.45691
6962.70020 0.46796
6966.10010 0.47922
6969.39990 0.49096
6972.70020 0.50171
6976.00000 0.51214
6979.29980 0.52286
6982.70020 0.53377
6986.00000 0.54444
6989.29980 0.55483
6992.60010 0.56463
6995.89990 0.57404
6999.20020 0.58269
7002.50000 0.59179
7005.89990 0.60072
7009.20020 0.60991
7012.50000 0.61873
7015.79980 0.62728
7019.10010 0.63507
7022.39990 0.64335
7025.70020 0.65126
7029.00000 0.65952
7032.39990 0.66717
7035.70020 0.67469
7039.00000 0.68148
7042.29980 0.68782
7045.60010 0.69375
7048.89990 0.69972
7052.20020 0.70617
7055.50000 0.71244
7058.79980 0.71935
7062.10010 0.72573
7065.39990 0.7316
7068.70020 0.73718
7072.00000 0.74316
7075.39990 0.74862
7078.70020 0.75358
7082.00000 0.75885
7085.29980 0.76414
7088.60010 0.7687
7091.89990 0.77302
7095.20020 0.77814
7098.50000 0.78255
7101.79980 0.7868
7105.10010 0.79136
7108.39990 0.79566
7111.70020 0.80028
7115.00000 0.80515
7118.29980 0.80929
7121.60010 0.81315
7124.89990 0.817
7128.20020 0.82025
7131.50000 0.82342
7134.79980 0.82698
7138.10010 0.82982
7141.39990 0.83327
7144.70020 0.8356
7148.00000 0.83883
7151.20020 0.84161
7154.50000 0.84495
7157.79980 0.84738
7161.10010 0.85106
7164.39990 0.85369
7167.70020 0.85649
7171.00000 0.85834
7174.29980 0.861
7177.60010 0.86286
7180.89990 0.86445
7184.20020 0.86649
7187.50000 0.86827
7190.79980 0.87031
7194.00000 0.87178
7197.29980 0.87479
7200.60010 0.876
7203.89990 0.87706
7207.20020 0.87826
7210.50000 0.88015
7213.79980 0.87993
7217.10010 0.88151
7220.29980 0.88418
7223.60010 0.88587
7226.89990 0.88795
7230.20020 0.88993
7233.50000 0.89135
7236.79980 0.89221
7240.00000 0.89222
7243.29980 0.89295
7246.60010 0.89475
7249.89990 0.89533
7253.20020 0.89708
7256.50000 0.89868
7259.70020 0.89932
7263.00000 0.90022
7266.29980 0.9016
7269.60010 0.90192
7272.89990 0.90318
7276.10010 0.90363
7279.39990 0.90377
7282.70020 0.90495
7286.00000 0.90598
7289.20020 0.90682
7292.50000 0.90868
7295.79980 0.91029
7299.10010 0.91083
7302.29980 0.91221
7305.60010 0.91327
7308.89990 0.91333
7312.20020 0.91369
7315.39990 0.91383
7318.70020 0.91359
7322.00000 0.91421
7325.29980 0.91483
7328.50000 0.91601
7331.79980 0.91803
7335.10010 0.91955
7338.29980 0.92029
7341.60010 0.92137
7344.89990 0.9215
7348.10010 0.92184
7351.39990 0.92258
7354.70020 0.92387
7357.89990 0.92423
7361.20020 0.92496
7364.50000 0.92522
7367.70020 0.92545
7371.00000 0.92576
7374.29980 0.92664
7377.50000 0.92765
7380.79980 0.92884
7384.10010 0.92927
7387.29980 0.92885
7390.60010 0.92995
7393.89990 0.93016
7397.10010 0.93029
7400.39990 0.93162
7403.60010 0.93239
7406.89990 0.93234
7410.20020 0.9329
7413.39990 0.93347
7416.70020 0.93277
7419.89990 0.93272
7423.20020 0.93255
7426.50000 0.93297
7429.70020 0.933
7433.00000 0.93304
7436.20020 0.93484
7439.50000 0.93557
7442.79980 0.93469
7446.00000 0.93406
7449.29980 0.93425
7452.50000 0.93357
7455.79980 0.93393
7459.00000 0.93449
7462.29980 0.93481
7465.50000 0.93457
7468.79980 0.93502
7472.00000 0.93395
7475.29980 0.93458
7478.50000 0.93455
7481.79980 0.93462
7485.00000 0.9338
7488.29980 0.93429
7491.50000 0.93409
7494.79980 0.93459
7498.00000 0.93521
7501.29980 0.936
7504.50000 0.93572
7507.79980 0.93543
7511.00000 0.93553
7514.29980 0.93555
7517.50000 0.93519
7520.79980 0.93576
7524.00000 0.93639
7527.29980 0.93677
7530.50000 0.93652
7533.70020 0.93717
7537.00000 0.93756
7540.20020 0.9381
7543.50000 0.93877
7546.70020 0.94021
7550.00000 0.94016
7553.20020 0.94009
7556.39990 0.93929
7559.70020 0.93959
7562.89990 0.93836
7566.20020 0.93833
7569.39990 0.9386
7572.60010 0.93972
7575.89990 0.93913
7579.10010 0.94058
7582.39990 0.94076
7585.60010 0.94157
7588.79980 0.9408
7592.10010 0.94064
7595.29980 0.94071
7598.50000 0.9398
7601.79980 0.93938
7605.00000 0.94079
7608.20020 0.9416
7611.50000 0.94153
7614.70020 0.94179
7617.89990 0.94206
7621.20020 0.94061
7624.39990 0.9399
7627.60010 0.93916
7630.89990 0.94048
7634.10010 0.9408
7637.29980 0.94234
7640.60010 0.94365
7643.79980 0.9446
7647.00000 0.94478
7650.20020 0.94482
7653.50000 0.94448
7656.70020 0.94441
7659.89990 0.9452
7663.20020 0.94515
7666.39990 0.94534
7669.60010 0.94414
7672.79980 0.94409
7676.10010 0.94323
7679.29980 0.9431
7682.50000 0.94301
7685.70020 0.94456
7689.00000 0.94462
7692.20020 0.94462
7695.39990 0.94478
7698.60010 0.94463
7701.79980 0.94497
7705.10010 0.94488
7708.29980 0.9454
7711.50000 0.94475
7714.70020 0.94513
7717.89990 0.94505
7721.20020 0.94419
7724.39990 0.94362
7727.60010 0.9449
7730.79980 0.94467
7734.00000 0.94437
7737.20020 0.94588
7740.50000 0.94668
7743.70020 0.94671
7746.89990 0.94746
7750.10010 0.94777
7753.29980 0.94701
7756.50000 0.94623
7759.70020 0.94571
7763.00000 0.94538
7766.20020 0.94552
7769.39990 0.94617
7772.60010 0.94624
7775.79980 0.94573
7779.00000 0.94594
7782.20020 0.94501
7785.39990 0.94563
7788.70020 0.9461
7791.89990 0.94709
7795.10010 0.94657
7798.29980 0.94764
7801.50000 0.947
7804.70020 0.94682
7807.89990 0.94679
7811.10010 0.9463
7814.29980 0.94457
7817.50000 0.94386
7820.70020 0.94367
7823.89990 0.94374
7827.10010 0.94422
7830.29980 0.94603
7833.50000 0.94643
7836.70020 0.94661
7839.89990 0.94653
7843.10010 0.94704
7846.39990 0.94585
7849.60010 0.94549
7852.79980 0.94542
7856.00000 0.94477
7859.20020 0.94405
7862.39990 0.94373
7865.60010 0.9435
7868.79980 0.94372
7871.89990 0.94403
7875.10010 0.94417
7878.29980 0.94432
7881.50000 0.94328
7884.70020 0.9429
7887.89990 0.94276
7891.10010 0.94316
7894.29980 0.94317
7897.50000 0.94369
7900.70020 0.94391
7903.89990 0.94424
7907.10010 0.94371
7910.29980 0.94453
7913.50000 0.94622
7916.70020 0.9466
7919.89990 0.94533
7923.10010 0.946
7926.29980 0.94574
7929.39990 0.9449
7932.60010 0.94419
7935.79980 0.94537
7939.00000 0.94599
7942.20020 0.9469
7945.39990 0.94823
7948.60010 0.94905
7951.79980 0.94894
7955.00000 0.94853
7958.10010 0.94861
7961.29980 0.9472
7964.50000 0.94818
7967.70020 0.94881
7970.89990 0.94894
7974.10010 0.94833
7977.29980 0.94984
7980.39990 0.94903
7983.60010 0.94901
7986.79980 0.94942
7990.00000 0.94956
7993.20020 0.94986
7996.29980 0.94952
7999.50000 0.94932
8002.70020 0.94905
8005.89990 0.95038
8009.10010 0.94914
8012.20020 0.95008
8015.39990 0.95026
8018.60010 0.95005
8021.79980 0.94956
8025.00000 0.95038
8028.10010 0.95062
8031.29980 0.95118
8034.50000 0.95055
8037.70020 0.94992
8040.79980 0.94918
8044.00000 0.94784
8047.20020 0.94673
8050.39990 0.94743
8053.50000 0.94714
8056.70020 0.94695
8059.89990 0.94864
8063.10010 0.94816
8066.20020 0.94811
8069.39990 0.94828
8072.60010 0.94862
8075.70020 0.94733
8078.89990 0.94798
8082.10010 0.94661
8085.20020 0.9467
8088.39990 0.94664
8091.60010 0.94784
8094.79980 0.94835
8097.89990 0.94954
8101.10010 0.94841
8104.29980 0.94791
8107.39990 0.94619
8110.60010 0.94644
8113.70020 0.94577
8116.89990 0.94717
8120.10010 0.94803
8123.20020 0.94926
8126.39990 0.94843
8129.60010 0.94909
8132.70020 0.94839
8135.89990 0.94803
8139.10010 0.94703
8142.20020 0.94681
8145.39990 0.94685
8148.50000 0.94699
8151.70020 0.94621
8154.89990 0.94597
8158.00000 0.94727
8161.20020 0.94755
8164.29980 0.94797
8167.50000 0.94936
8170.60010 0.94988
8173.79980 0.94898
8177.00000 0.94837
8180.10010 0.94816
8183.29980 0.94793
8186.39990 0.94912
8189.60010 0.95054
8192.70020 0.95074
8195.90039 0.95162
8199.00000 0.95248
8202.20020 0.9515
8205.40039 0.94936
8208.50000 0.94984
8211.70020 0.94842
8214.79980 0.94765
8218.00000 0.94739
8221.09961 0.94907
8224.29980 0.94983
8227.40039 0.95144
8230.59961 0.95025
8233.70020 0.95005
8236.90039 0.94893
8240.00000 0.94822
8243.20020 0.94773
8246.29980 0.94779
8249.40039 0.94944
8252.59961 0.95019
8255.70020 0.95013
8258.90039 0.95124
8262.00000 0.95164
8265.20020 0.94966
8268.29980 0.95009
8271.50000 0.95009
8274.59961 0.94902
8277.70020 0.94942
8280.90039 0.95128
8284.00000 0.95064
8287.20020 0.95114
8290.29980 0.95023
8293.50000 0.9507
8296.59961 0.95082
8299.70020 0.95176
8302.90039 0.9514
8306.00000 0.95246
8309.09961 0.95185
8312.29980 0.95059
8315.40039 0.95054
8318.59961 0.9505
8321.70020 0.94985
8324.79980 0.95067
8328.00000 0.95195
8331.09961 0.95165
8334.20020 0.95163
8337.40039 0.95221
8340.50000 0.95239
8343.59961 0.95137
8346.79980 0.9525
8349.90039 0.95302
8353.00000 0.95223
8356.20020 0.95209
8359.29980 0.95306
8362.40039 0.95291
8365.59961 0.95333
8368.70020 0.95445
8371.79980 0.9553
8374.90039 0.9552
8378.09961 0.95565
8381.20020 0.95552
8384.29980 0.95645
8387.50000 0.9556
8390.59961 0.95671
8393.70020 0.95585
8396.79980 0.9545
8400.00000 0.95396
8403.09961 0.95339
8406.20020 0.95142
8409.29980 0.95029
8412.50000 0.95061
8415.59961 0.94788
8418.70020 0.94333
8421.79980 0.93878
8425.00000 0.93222
8428.09961 0.92374
8431.20020 0.91411
8434.29980 0.90496
8437.40039 0.8936
8440.59961 0.87935
8443.70020 0.86283
8446.79980 0.84452
8449.90039 0.82377
8453.00000 0.79995
8456.20020 0.77469
8459.29980 0.7493
8462.40039 0.72156
8465.50000 0.6925
8468.59961 0.66274
8471.70020 0.63156
8474.90039 0.59768
8478.00000 0.56423
8481.09961 0.53097
8484.20020 0.49626
8487.29980 0.46312
8490.40039 0.43047
8493.50000 0.39857
8496.59961 0.36799
8499.79980 0.33862
8502.90039 0.31141
8506.00000 0.28618
8509.09961 0.26336
8512.20020 0.24084
8515.29980 0.22076
8518.40039 0.20178
8521.50000 0.18338
8524.59961 0.16693
8527.70020 0.15157
8530.90039 0.13849
8534.00000 0.1251
8537.09961 0.11424
8540.20020 0.10291
8543.29980 0.09452
8546.40039 0.08577
8549.50000 0.07823
8552.59961 0.07096
8555.70020 0.06527
8558.79980 0.05831
8561.90039 0.05344
8565.00000 0.04912
8568.09961 0.04485
8571.20020 0.04125
8574.29980 0.03806
8577.40039 0.03375
8580.50000 0.03021
8583.59961 0.02775
8586.70020 0.02567
8589.79980 0.02344
8592.90039 0.02223
8596.00000 0.02018
8599.09961 0.01854
8602.20020 0.01598
8605.29980 0.01485
8608.40039 0.01326
8611.50000 0.01307
8614.59961 0.01183
8617.70020 0.01187
8620.79980 0.01137
8623.90039 0.01143
8627.00000 0.00956
8630.09961 0.0089
8633.20020 0.00767
8636.20020 0.00664
8639.29980 0.00462
8642.40039 0.00456
8645.50000 0.00354
8648.59961 0.00303
8651.70020 0.00183
8654.79980 0.00182
8657.90039 0.00101
8661.00000 0.00102
8664.09961 0.00025
8667.09961 0.00046
8670.20020 0.00019
8673.29980 0.00074
8676.40039 0.00045
8679.50000 0.00068
8682.59961 0.00041
8685.70020 0.00046
8688.79980 1e-05
8691.79980 0.00031
8694.90039 9e-05
8698.00000 0.00048
8701.09961 0.00014
8704.20020 0.00037
8707.29980 9e-05
8710.29980 0.00041
8713.40039 1e-05
9584.74023 0.0
