# %ECSV 0.9
# ---
# datatype:
# - {name: wavelength, unit: Angstrom, datatype: float32}
# - {name: response, datatype: float32}
# meta: !!omap
# - {band_name: GG455}
# - {group_name: IMACS}
wavelength response
3916.80005 0.0
4352.00000 0.0012
4354.00000 0.0012
4355.00000 0.0011
4357.00000 0.0013
4358.00000 0.0013
4360.00000 0.0015
4361.00000 0.0017
4363.00000 0.0018
4364.00000 0.0013
4366.00000 0.0012
4368.00000 0.0016
4369.00000 0.0016
4371.00000 0.0013
4372.00000 0.0011
4374.00000 0.0006
4375.00000 0.0001
4377.00000 0.0001
4378.00000 0.0006
4380.00000 0.0011
4381.00000 0.0017
4383.00000 0.0023
4384.00000 0.002
4386.00000 0.0018
4388.00000 0.0018
4389.00000 0.0019
4391.00000 0.0017
4392.00000 0.0022
4394.00000 0.0025
4395.00000 0.0024
4397.00000 0.0022
4398.00000 0.0022
4400.00000 0.0021
4401.00000 0.002
4403.00000 0.0021
4404.00000 0.0023
4406.00000 0.0022
4407.00000 0.0023
4409.00000 0.0027
4411.00000 0.0029
4412.00000 0.0038
4414.00000 0.0049
4415.00000 0.006
4417.00000 0.0069
4418.00000 0.0081
4420.00000 0.0087
4421.00000 0.0101
4423.00000 0.0113
4424.00000 0.0124
4426.00000 0.0138
4427.00000 0.0154
4429.00000 0.0167
4430.00000 0.0183
4432.00000 0.0201
4434.00000 0.0221
4435.00000 0.0239
4437.00000 0.0263
4438.00000 0.029
4440.00000 0.0315
4441.00000 0.0343
4443.00000 0.0375
4444.00000 0.0406
4446.00000 0.044
4447.00000 0.0481
4449.00000 0.0514
4450.00000 0.0557
4452.00000 0.0601
4453.00000 0.0643
4455.00000 0.0689
4456.00000 0.0738
4458.00000 0.0789
4459.00000 0.084
4461.00000 0.0894
4463.00000 0.0949
4464.00000 0.101
4466.00000 0.1074
4467.00000 0.114
4469.00000 0.1215
4470.00000 0.1281
4472.00000 0.1351
4473.00000 0.1422
4475.00000 0.1495
4476.00000 0.1572
4478.00000 0.1652
4479.00000 0.1729
4481.00000 0.1816
4482.00000 0.1913
4484.00000 0.1998
4485.00000 0.2092
4487.00000 0.2187
4488.00000 0.228
4490.00000 0.2375
4491.00000 0.2476
4493.00000 0.2576
4495.00000 0.2673
4496.00000 0.2769
4498.00000 0.2867
4499.00000 0.2971
4501.00000 0.3071
4502.00000 0.3176
4504.00000 0.3281
4505.00000 0.3392
4507.00000 0.3499
4508.00000 0.3603
4510.00000 0.3711
4511.00000 0.3814
4513.00000 0.3913
4514.00000 0.4023
4516.00000 0.414
4517.00000 0.4243
4519.00000 0.4344
4520.00000 0.4447
4522.00000 0.454
4523.00000 0.4643
4525.00000 0.475
4526.00000 0.4847
4528.00000 0.4947
4529.00000 0.5055
4531.00000 0.5158
4532.00000 0.527
4534.00000 0.5371
4536.00000 0.5463
4537.00000 0.5552
4539.00000 0.5643
4540.00000 0.5724
4542.00000 0.5807
4543.00000 0.5889
4545.00000 0.5978
4546.00000 0.6066
4548.00000 0.6151
4549.00000 0.6241
4551.00000 0.6322
4552.00000 0.6411
4554.00000 0.649
4555.00000 0.6571
4557.00000 0.6647
4558.00000 0.6713
4560.00000 0.6782
4561.00000 0.6849
4563.00000 0.6917
4564.00000 0.6979
4566.00000 0.7052
4567.00000 0.7116
4569.00000 0.7184
4570.00000 0.7239
4572.00000 0.7297
4573.00000 0.7355
4575.00000 0.7413
4576.00000 0.7465
4578.00000 0.7527
4579.00000 0.7585
4581.00000 0.7637
4582.00000 0.7689
4584.00000 0.7745
4585.00000 0.7793
4587.00000 0.7842
4588.00000 0.7894
4590.00000 0.794
4591.00000 0.7983
4593.00000 0.8025
4594.00000 0.807
4596.00000 0.811
4597.00000 0.8148
4599.00000 0.818
4600.00000 0.8219
4602.00000 0.8246
4603.00000 0.8282
4605.00000 0.8322
4606.00000 0.8365
4608.00000 0.8395
4610.00000 0.8429
4611.00000 0.8463
4613.00000 0.8487
4614.00000 0.8517
4616.00000 0.8549
4617.00000 0.8582
4619.00000 0.8612
4620.00000 0.8641
4622.00000 0.8664
4623.00000 0.8692
4625.00000 0.8712
4626.00000 0.873
4628.00000 0.8751
4629.00000 0.8777
4631.00000 0.8795
4632.00000 0.8821
4634.00000 0.8848
4635.00000 0.887
4637.00000 0.8879
4638.00000 0.8901
4640.00000 0.8922
4641.00000 0.8934
4643.00000 0.8954
4644.00000 0.8974
4646.00000 0.899
4647.00000 0.9003
4649.00000 0.9021
4650.00000 0.9033
4652.00000 0.9053
4653.00000 0.9066
4655.00000 0.9086
4656.00000 0.9102
4658.00000 0.9115
4659.00000 0.9131
4661.00000 0.9145
4662.00000 0.9152
4664.00000 0.9161
4665.00000 0.918
4667.00000 0.9194
4668.00000 0.9211
4670.00000 0.9223
4671.00000 0.9237
4673.00000 0.9245
4674.00000 0.9252
4675.00000 0.9258
4677.00000 0.9274
4678.00000 0.9285
4680.00000 0.9297
4681.00000 0.9313
4683.00000 0.9324
4684.00000 0.933
4686.00000 0.9343
4687.00000 0.9349
4689.00000 0.9354
4690.00000 0.936
4692.00000 0.9367
4693.00000 0.9371
4695.00000 0.9375
4696.00000 0.9384
4698.00000 0.9389
4699.00000 0.9401
4701.00000 0.9414
4702.00000 0.9423
4704.00000 0.9427
4705.00000 0.9434
4707.00000 0.9435
4708.00000 0.9436
4710.00000 0.9441
4711.00000 0.9449
4713.00000 0.9457
4714.00000 0.9464
4716.00000 0.9472
4717.00000 0.9483
4719.00000 0.9486
4720.00000 0.9498
4722.00000 0.9504
4723.00000 0.9508
4725.00000 0.9511
4726.00000 0.9521
4728.00000 0.9519
4729.00000 0.9524
4731.00000 0.9526
4732.00000 0.953
4734.00000 0.9533
4735.00000 0.9544
4737.00000 0.9551
4738.00000 0.9562
4740.00000 0.9568
4741.00000 0.9568
4743.00000 0.9572
4744.00000 0.9577
4746.00000 0.9571
4747.00000 0.9573
4748.00000 0.9578
4750.00000 0.9583
4751.00000 0.9582
4753.00000 0.9592
4754.00000 0.9593
4756.00000 0.9594
4757.00000 0.9592
4759.00000 0.9602
4760.00000 0.9615
4762.00000 0.9617
4763.00000 0.9622
4765.00000 0.9636
4766.00000 0.9636
4768.00000 0.9629
4769.00000 0.9625
4771.00000 0.963
4772.00000 0.9626
4774.00000 0.962
4775.00000 0.9624
4777.00000 0.9643
4778.00000 0.9637
4780.00000 0.9629
4781.00000 0.9638
4783.00000 0.9639
4784.00000 0.9634
4786.00000 0.9646
4787.00000 0.9652
4788.00000 0.9654
4790.00000 0.9669
4791.00000 0.966
4793.00000 0.9658
4794.00000 0.9657
4796.00000 0.9656
4797.00000 0.9656
4799.00000 0.967
4800.00000 0.9677
4802.00000 0.9677
4803.00000 0.9689
4805.00000 0.9686
4806.00000 0.969
4808.00000 0.9686
4809.00000 0.9688
4811.00000 0.9685
4812.00000 0.9674
4814.00000 0.9672
4815.00000 0.9675
4817.00000 0.9681
4818.00000 0.9677
4819.00000 0.9685
4821.00000 0.9694
4822.00000 0.9696
4824.00000 0.9698
4825.00000 0.9705
4827.00000 0.9707
4828.00000 0.9702
4830.00000 0.9705
4831.00000 0.9712
4833.00000 0.9717
4834.00000 0.9722
4836.00000 0.9727
4837.00000 0.9735
4839.00000 0.9733
4840.00000 0.9733
4842.00000 0.9738
4843.00000 0.974
4845.00000 0.9737
4846.00000 0.9743
4847.00000 0.9741
4849.00000 0.9734
4850.00000 0.9737
4852.00000 0.9745
4853.00000 0.9742
4855.00000 0.9751
4856.00000 0.9756
4858.00000 0.9755
4859.00000 0.9747
4861.00000 0.9753
4862.00000 0.9749
4864.00000 0.975
4865.00000 0.975
4867.00000 0.9756
4868.00000 0.9754
4869.00000 0.9754
4871.00000 0.976
4872.00000 0.9765
4874.00000 0.977
4875.00000 0.9773
4877.00000 0.9777
4878.00000 0.9773
4880.00000 0.9768
4881.00000 0.9769
4883.00000 0.9772
4884.00000 0.9771
4886.00000 0.9778
4887.00000 0.9783
4889.00000 0.9781
4890.00000 0.9782
4891.00000 0.9784
4893.00000 0.9783
4894.00000 0.9783
4896.00000 0.9788
4897.00000 0.9792
4899.00000 0.9797
4900.00000 0.9797
4902.00000 0.9801
4903.00000 0.9802
4905.00000 0.9799
4906.00000 0.9796
4908.00000 0.9795
4909.00000 0.9796
4910.00000 0.9796
4912.00000 0.9796
4913.00000 0.9803
4915.00000 0.9806
4916.00000 0.9804
4918.00000 0.9799
4919.00000 0.9801
4921.00000 0.9799
4922.00000 0.9802
4924.00000 0.9808
4925.00000 0.9813
4927.00000 0.9808
4928.00000 0.9808
4929.00000 0.9806
4931.00000 0.9803
4932.00000 0.9805
4934.00000 0.9812
4935.00000 0.9813
4937.00000 0.9815
4938.00000 0.9816
4940.00000 0.9817
4941.00000 0.9815
4943.00000 0.9811
4944.00000 0.9811
4945.00000 0.9811
4947.00000 0.9809
4948.00000 0.9809
4950.00000 0.9814
4951.00000 0.9811
4953.00000 0.9813
4954.00000 0.9813
4956.00000 0.9818
4957.00000 0.9816
4959.00000 0.982
4960.00000 0.9819
4961.00000 0.9828
4963.00000 0.9829
4964.00000 0.9834
4966.00000 0.9839
4967.00000 0.9843
4969.00000 0.9839
4970.00000 0.9841
4972.00000 0.984
4973.00000 0.9843
4975.00000 0.9847
4976.00000 0.9848
4977.00000 0.9849
4979.00000 0.9856
4980.00000 0.9853
4982.00000 0.9847
4983.00000 0.9851
4985.00000 0.9853
4986.00000 0.9852
4988.00000 0.9853
4989.00000 0.9863
4990.00000 0.9863
4992.00000 0.9858
4993.00000 0.9855
4995.00000 0.9852
4996.00000 0.9846
4998.00000 0.9845
4999.00000 0.9848
5001.00000 0.9847
5002.00000 0.9849
5003.00000 0.9847
5005.00000 0.9845
5006.00000 0.9847
5008.00000 0.9856
5009.00000 0.9862
5011.00000 0.9867
5012.00000 0.9871
5014.00000 0.9873
5015.00000 0.987
5017.00000 0.987
5018.00000 0.9869
5019.00000 0.9867
5021.00000 0.9862
5022.00000 0.9865
5024.00000 0.9862
5025.00000 0.9864
5027.00000 0.9865
5028.00000 0.9869
5029.00000 0.9866
5031.00000 0.9867
5032.00000 0.987
5034.00000 0.9876
5035.00000 0.9875
5037.00000 0.9876
5038.00000 0.9879
5040.00000 0.9877
5041.00000 0.9868
5042.00000 0.9869
5044.00000 0.9869
5045.00000 0.9869
5047.00000 0.9873
5048.00000 0.9882
5050.00000 0.9877
5051.00000 0.9876
5053.00000 0.9872
5054.00000 0.9865
5055.00000 0.9864
5057.00000 0.9871
5058.00000 0.9877
5060.00000 0.9886
5061.00000 0.9892
5063.00000 0.9895
5064.00000 0.9898
5065.00000 0.9896
5067.00000 0.9897
5068.00000 0.9898
5070.00000 0.9894
5071.00000 0.9893
5073.00000 0.9891
5074.00000 0.9888
5076.00000 0.9884
5077.00000 0.9886
5078.00000 0.9885
5080.00000 0.9888
5081.00000 0.9888
5083.00000 0.9891
5084.00000 0.9894
5086.00000 0.9895
5087.00000 0.9895
5088.00000 0.9897
5090.00000 0.99
5091.00000 0.99
5093.00000 0.9899
5094.00000 0.99
5096.00000 0.9898
5097.00000 0.9894
5098.00000 0.989
5100.00000 0.9892
5101.00000 0.9893
5103.00000 0.9898
5104.00000 0.9896
5106.00000 0.9902
5107.00000 0.99
5109.00000 0.9899
5110.00000 0.9897
5111.00000 0.9902
5113.00000 0.9899
5114.00000 0.9902
5116.00000 0.9902
5117.00000 0.9903
5119.00000 0.9902
5120.00000 0.9903
5121.00000 0.9905
5123.00000 0.9903
5124.00000 0.99
5126.00000 0.9902
5127.00000 0.9902
5129.00000 0.9901
5130.00000 0.9901
5131.00000 0.99
5133.00000 0.99
5134.00000 0.9899
5136.00000 0.9901
5137.00000 0.9906
5139.00000 0.991
5140.00000 0.9915
5141.00000 0.9917
5143.00000 0.9912
5144.00000 0.991
5146.00000 0.9901
5147.00000 0.9895
5148.00000 0.99
5150.00000 0.9898
5151.00000 0.9896
5153.00000 0.9898
5154.00000 0.9897
5156.00000 0.9894
5157.00000 0.9904
5158.00000 0.9913
5160.00000 0.9921
5161.00000 0.9925
5163.00000 0.992
5164.00000 0.9915
5166.00000 0.9913
5167.00000 0.9911
5168.00000 0.9913
5170.00000 0.9914
5171.00000 0.9916
5173.00000 0.9907
5174.00000 0.9902
5176.00000 0.9902
5177.00000 0.9906
5178.00000 0.9906
5180.00000 0.9908
5181.00000 0.9911
5183.00000 0.9913
5184.00000 0.9912
5185.00000 0.9906
5187.00000 0.991
5188.00000 0.9915
5190.00000 0.9918
5191.00000 0.9921
5193.00000 0.9926
5194.00000 0.9922
5195.00000 0.9919
5197.00000 0.9913
5198.00000 0.9909
5200.00000 0.9908
5201.00000 0.9906
5202.00000 0.9909
5204.00000 0.9916
5205.00000 0.992
5207.00000 0.9933
5208.00000 0.9937
5210.00000 0.9938
5211.00000 0.9935
5212.00000 0.9933
5214.00000 0.9924
5215.00000 0.9927
5217.00000 0.9919
5218.00000 0.9921
5219.00000 0.9928
5221.00000 0.9927
5222.00000 0.9926
5224.00000 0.9929
5225.00000 0.9929
5227.00000 0.9925
5228.00000 0.9928
5229.00000 0.993
5231.00000 0.9931
5232.00000 0.9922
5234.00000 0.9923
5235.00000 0.9916
5236.00000 0.9913
5238.00000 0.9916
5239.00000 0.9925
5241.00000 0.9923
5242.00000 0.9925
5243.00000 0.9932
5245.00000 0.9929
5246.00000 0.9924
5248.00000 0.9926
5249.00000 0.993
5250.00000 0.9921
5252.00000 0.992
5253.00000 0.992
5255.00000 0.9924
5256.00000 0.9922
5258.00000 0.9926
5259.00000 0.9929
5260.00000 0.9935
5262.00000 0.9922
5263.00000 0.9922
5265.00000 0.9919
5266.00000 0.9915
5267.00000 0.9903
5269.00000 0.9909
5270.00000 0.9912
5272.00000 0.9912
5273.00000 0.9918
5274.00000 0.9928
5276.00000 0.9928
5277.00000 0.9923
5279.00000 0.9925
5280.00000 0.9926
5281.00000 0.9936
5283.00000 0.9935
5284.00000 0.9946
5286.00000 0.9941
5287.00000 0.9932
5288.00000 0.9921
5290.00000 0.9927
5291.00000 0.9933
5293.00000 0.9937
5294.00000 0.9945
5295.00000 0.9945
5297.00000 0.9944
5298.00000 0.9916
5300.00000 0.9918
5301.00000 0.9914
5302.00000 0.9907
5304.00000 0.9915
5305.00000 0.9933
5307.00000 0.9927
5308.00000 0.9924
5309.00000 0.9924
5311.00000 0.9927
5312.00000 0.9923
5314.00000 0.9929
5315.00000 0.9927
5316.00000 0.9921
5318.00000 0.9919
5319.00000 0.9928
5321.00000 0.9935
5322.00000 0.9946
5323.00000 0.9945
5325.00000 0.9944
5326.00000 0.9945
5328.00000 0.9946
5329.00000 0.9947
5330.00000 0.9935
5332.00000 0.9941
5333.00000 0.9936
5335.00000 0.9935
5336.00000 0.9948
5337.00000 0.9945
5339.00000 0.9944
5340.00000 0.994
5342.00000 0.9939
5343.00000 0.993
5344.00000 0.992
5346.00000 0.9919
5347.00000 0.9915
5349.00000 0.9912
5350.00000 0.9918
5351.00000 0.9926
5353.00000 0.9936
5354.00000 0.9936
5356.00000 0.9947
5357.00000 0.9941
5358.00000 0.9938
5360.00000 0.993
5361.00000 0.9938
5363.00000 0.9947
5364.00000 0.9948
5365.00000 0.9944
5367.00000 0.994
5368.00000 0.9938
5369.00000 0.9933
5371.00000 0.9935
5372.00000 0.9918
5374.00000 0.9915
5375.00000 0.9922
5376.00000 0.9933
5378.00000 0.9925
5379.00000 0.9936
5381.00000 0.9943
5382.00000 0.994
5383.00000 0.9942
5385.00000 0.9946
5386.00000 0.9948
5388.00000 0.9946
5389.00000 0.9946
5390.00000 0.9936
5392.00000 0.9915
5393.00000 0.992
5394.00000 0.9913
5396.00000 0.9916
5397.00000 0.9918
5399.00000 0.9931
5400.00000 0.9914
5401.00000 0.9924
5403.00000 0.992
5404.00000 0.9918
5406.00000 0.9923
5407.00000 0.9928
5408.00000 0.9916
5410.00000 0.9921
5411.00000 0.9922
5412.00000 0.9922
5414.00000 0.9931
5415.00000 0.994
5417.00000 0.9937
5418.00000 0.9938
5419.00000 0.9942
5421.00000 0.9923
5422.00000 0.9905
5424.00000 0.9897
5425.00000 0.9903
5426.00000 0.9905
5428.00000 0.9914
5429.00000 0.994
5430.00000 0.9941
5432.00000 0.9936
5433.00000 0.9931
5435.00000 0.9941
5436.00000 0.9943
5437.00000 0.9942
5439.00000 0.994
5440.00000 0.994
5441.00000 0.9939
5443.00000 0.9922
5444.00000 0.9909
5446.00000 0.9902
5447.00000 0.9904
5448.00000 0.9913
5450.00000 0.9921
5451.00000 0.9932
5453.00000 0.9931
5454.00000 0.9929
5455.00000 0.993
5457.00000 0.9947
5458.00000 0.9938
5459.00000 0.9917
5461.00000 0.9921
5462.00000 0.991
5464.00000 0.9933
5465.00000 0.9938
5466.00000 0.994
5468.00000 0.993
5469.00000 0.9942
5470.00000 0.9935
5472.00000 0.9928
5473.00000 0.9928
5475.00000 0.993
5476.00000 0.993
5477.00000 0.9933
5479.00000 0.9936
5480.00000 0.9938
5481.00000 0.994
5483.00000 0.9941
5484.00000 0.9945
5485.00000 0.9947
5487.00000 0.9944
5488.00000 0.9949
5490.00000 0.9947
5491.00000 0.9946
5492.00000 0.9945
5494.00000 0.9943
5495.00000 0.9942
5496.00000 0.9943
5498.00000 0.9944
5499.00000 0.9943
5501.00000 0.9942
5502.00000 0.9943
5503.00000 0.9944
5505.00000 0.9942
5506.00000 0.9943
5507.00000 0.9949
5509.00000 0.994
5510.00000 0.9913
5512.00000 0.9904
5513.00000 0.9916
5514.00000 0.9912
5516.00000 0.9915
5517.00000 0.9928
5518.00000 0.9915
5520.00000 0.9927
5521.00000 0.9924
5522.00000 0.9923
5524.00000 0.9893
5525.00000 0.99
5527.00000 0.9892
5528.00000 0.9895
5529.00000 0.9915
5531.00000 0.992
5532.00000 0.993
5533.00000 0.994
5535.00000 0.9942
5536.00000 0.9924
5537.00000 0.9942
5539.00000 0.9942
5540.00000 0.9941
5542.00000 0.9942
5543.00000 0.9945
5544.00000 0.9927
5546.00000 0.993
5547.00000 0.9919
5548.00000 0.9922
5550.00000 0.9934
5551.00000 0.9935
5552.00000 0.9936
5554.00000 0.9937
5555.00000 0.9945
5557.00000 0.9929
5558.00000 0.9913
5559.00000 0.9904
5561.00000 0.9924
5562.00000 0.9936
5563.00000 0.9933
5565.00000 0.9931
5566.00000 0.9928
5567.00000 0.9925
5569.00000 0.9926
5570.00000 0.9927
5572.00000 0.9909
5573.00000 0.9877
5574.00000 0.9885
5576.00000 0.9885
5577.00000 0.9879
5578.00000 0.9879
5580.00000 0.9888
5581.00000 0.9887
5582.00000 0.9896
5584.00000 0.9905
5585.00000 0.993
5586.00000 0.9944
5588.00000 0.9943
5589.00000 0.9944
5591.00000 0.9944
5592.00000 0.9939
5593.00000 0.9918
5595.00000 0.9917
5596.00000 0.9933
5597.00000 0.9938
5599.00000 0.9938
5600.00000 0.9932
6003.00000 0.9835
6006.00000 0.9831
6009.00000 0.984
6013.00000 0.9834
6016.00000 0.9837
6020.00000 0.984
6023.00000 0.9848
6027.00000 0.9842
6030.00000 0.9853
6033.00000 0.9854
6037.00000 0.985
6040.00000 0.985
6044.00000 0.9847
6047.00000 0.9839
6051.00000 0.9833
6054.00000 0.9838
6058.00000 0.9836
6061.00000 0.9839
6064.00000 0.9849
6068.00000 0.9854
6071.00000 0.9855
6075.00000 0.9857
6078.00000 0.9854
6082.00000 0.9846
6085.00000 0.9848
6088.00000 0.9846
6092.00000 0.9843
6095.00000 0.9845
6099.00000 0.9855
6102.00000 0.9848
6106.00000 0.9846
6109.00000 0.9848
6112.00000 0.9856
6116.00000 0.9847
6119.00000 0.9855
6123.00000 0.9861
6126.00000 0.9863
6130.00000 0.9859
6133.00000 0.9868
6136.00000 0.9865
6140.00000 0.9866
6143.00000 0.9865
6147.00000 0.9866
6150.00000 0.9867
6154.00000 0.9861
6157.00000 0.9855
6160.00000 0.9857
6164.00000 0.9855
6167.00000 0.9852
6171.00000 0.986
6174.00000 0.9864
6178.00000 0.9862
6181.00000 0.9869
6184.00000 0.9869
6188.00000 0.9868
6191.00000 0.9875
6195.00000 0.9881
6198.00000 0.9875
6201.00000 0.9882
6205.00000 0.9882
6208.00000 0.9882
6212.00000 0.9879
6215.00000 0.9884
6219.00000 0.988
6222.00000 0.9884
6225.00000 0.9875
6229.00000 0.9874
6232.00000 0.9869
6236.00000 0.9867
6239.00000 0.987
6242.00000 0.9874
6246.00000 0.9877
6249.00000 0.9881
6253.00000 0.9884
6256.00000 0.9877
6260.00000 0.9878
6263.00000 0.9878
6266.00000 0.9873
6270.00000 0.9868
6273.00000 0.987
6277.00000 0.9868
6280.00000 0.9861
6283.00000 0.9865
6287.00000 0.9867
6290.00000 0.9868
6294.00000 0.9867
6297.00000 0.9876
6300.00000 0.9877
6304.00000 0.9882
6307.00000 0.9881
6311.00000 0.9884
6314.00000 0.9886
6317.00000 0.9893
6321.00000 0.989
6324.00000 0.9892
6328.00000 0.989
6331.00000 0.9887
6334.00000 0.9883
6338.00000 0.9883
6341.00000 0.9883
6345.00000 0.9885
6348.00000 0.9887
6351.00000 0.9887
6355.00000 0.9886
6358.00000 0.9891
6362.00000 0.9899
6365.00000 0.9897
6368.00000 0.9901
6372.00000 0.9909
6375.00000 0.9908
6379.00000 0.9902
6382.00000 0.9903
6385.00000 0.9899
6389.00000 0.9894
6392.00000 0.9893
6396.00000 0.9892
6399.00000 0.9895
6402.00000 0.9895
6406.00000 0.9902
6409.00000 0.9903
6413.00000 0.991
6416.00000 0.9911
6419.00000 0.9914
6423.00000 0.9904
6426.00000 0.9905
6429.00000 0.9894
6433.00000 0.9891
6436.00000 0.9888
6440.00000 0.9892
6443.00000 0.9894
6446.00000 0.9898
6450.00000 0.9898
6453.00000 0.9902
6457.00000 0.99
6460.00000 0.9901
6463.00000 0.9904
6467.00000 0.9907
6470.00000 0.9906
6474.00000 0.9912
6477.00000 0.9905
6480.00000 0.9907
6484.00000 0.9909
6487.00000 0.9914
6490.00000 0.9909
6494.00000 0.9913
6497.00000 0.9905
6501.00000 0.9906
6504.00000 0.9899
6507.00000 0.99
6511.00000 0.99
6514.00000 0.9911
6517.00000 0.9907
6521.00000 0.9907
6524.00000 0.9905
6528.00000 0.9904
6531.00000 0.9898
6534.00000 0.9902
6538.00000 0.9903
6541.00000 0.9905
6544.00000 0.9903
6548.00000 0.9902
6551.00000 0.9896
6555.00000 0.9896
6558.00000 0.9892
6561.00000 0.9891
6565.00000 0.9895
6568.00000 0.9899
6571.00000 0.9903
6575.00000 0.991
6578.00000 0.9916
6582.00000 0.9917
6585.00000 0.9918
6588.00000 0.9919
6592.00000 0.992
6595.00000 0.9917
6598.00000 0.9914
6602.00000 0.9912
6605.00000 0.9913
6608.00000 0.991
6612.00000 0.9908
6615.00000 0.9912
6619.00000 0.991
6622.00000 0.9911
6625.00000 0.9912
6629.00000 0.9915
6632.00000 0.9917
6635.00000 0.9917
6639.00000 0.9908
6642.00000 0.9911
6645.00000 0.9913
6649.00000 0.9915
6652.00000 0.9917
6656.00000 0.9924
6659.00000 0.9919
6662.00000 0.9917
6666.00000 0.9913
6669.00000 0.9911
6672.00000 0.9913
6676.00000 0.9916
6679.00000 0.9921
6682.00000 0.9919
6686.00000 0.9921
6689.00000 0.9921
6692.00000 0.9915
6696.00000 0.9914
6699.00000 0.9919
6703.00000 0.9917
6706.00000 0.9917
6709.00000 0.9922
6713.00000 0.9924
6716.00000 0.9921
6719.00000 0.9924
6723.00000 0.9919
6726.00000 0.992
6729.00000 0.9914
6733.00000 0.9916
6736.00000 0.9909
6739.00000 0.9908
6743.00000 0.9907
6746.00000 0.9911
6749.00000 0.9913
6753.00000 0.9916
6756.00000 0.9919
6759.00000 0.9912
6763.00000 0.9909
6766.00000 0.9901
6770.00000 0.9901
6773.00000 0.99
6776.00000 0.9907
6780.00000 0.9909
6783.00000 0.9912
6786.00000 0.9909
6790.00000 0.9908
6793.00000 0.9906
6796.00000 0.9903
6800.00000 0.9905
6803.00000 0.9906
6806.00000 0.9909
6810.00000 0.9905
6813.00000 0.9905
6816.00000 0.9907
6820.00000 0.9902
6823.00000 0.9901
6826.00000 0.9905
6830.00000 0.9909
6833.00000 0.9906
6836.00000 0.9911
6840.00000 0.9912
6843.00000 0.9909
6846.00000 0.9906
6850.00000 0.9903
6853.00000 0.9903
6856.00000 0.9902
6860.00000 0.9906
6863.00000 0.9906
6866.00000 0.9905
6870.00000 0.99
6873.00000 0.9904
6876.00000 0.9903
6880.00000 0.9906
6883.00000 0.9909
6886.00000 0.9913
6890.00000 0.991
6893.00000 0.9907
6896.00000 0.9908
6900.00000 0.9903
6903.00000 0.9895
6906.00000 0.989
6910.00000 0.989
6913.00000 0.9885
6916.00000 0.989
6920.00000 0.9903
6923.00000 0.9902
6926.00000 0.9903
6930.00000 0.99
6933.00000 0.9901
6936.00000 0.9896
6940.00000 0.9897
6943.00000 0.9898
6946.00000 0.9898
6950.00000 0.9894
6953.00000 0.9894
6956.00000 0.989
6959.00000 0.9886
6963.00000 0.9887
6966.00000 0.9886
6969.00000 0.9883
6973.00000 0.989
6976.00000 0.9892
6979.00000 0.9892
6983.00000 0.9893
6986.00000 0.9897
6989.00000 0.989
6993.00000 0.989
6996.00000 0.9893
6999.00000 0.9894
7003.00000 0.9888
7006.00000 0.9893
7009.00000 0.9894
7013.00000 0.9891
7016.00000 0.989
7019.00000 0.9887
7022.00000 0.989
7026.00000 0.9886
7029.00000 0.989
7032.00000 0.9888
7036.00000 0.989
7039.00000 0.9884
7042.00000 0.9877
7046.00000 0.987
7049.00000 0.987
7052.00000 0.9867
7056.00000 0.9874
7059.00000 0.9882
7062.00000 0.9882
7065.00000 0.9877
7069.00000 0.9873
7072.00000 0.9865
7075.00000 0.9862
7079.00000 0.9862
7082.00000 0.9864
7085.00000 0.9871
7089.00000 0.9876
7092.00000 0.9875
7095.00000 0.9877
7099.00000 0.9871
7102.00000 0.9867
7105.00000 0.9858
7108.00000 0.9863
7112.00000 0.9862
7115.00000 0.9866
7118.00000 0.9872
7122.00000 0.9875
7125.00000 0.9871
7128.00000 0.9865
7132.00000 0.9864
7135.00000 0.9856
7138.00000 0.985
7141.00000 0.9848
7145.00000 0.9846
7148.00000 0.9848
7151.00000 0.9849
7155.00000 0.9854
7158.00000 0.9852
7161.00000 0.9853
7164.00000 0.985
7168.00000 0.9846
7171.00000 0.9846
7174.00000 0.9845
7178.00000 0.9847
7181.00000 0.9843
7184.00000 0.9845
7188.00000 0.9845
7191.00000 0.9844
7194.00000 0.9845
7197.00000 0.985
7201.00000 0.9851
7204.00000 0.9851
7207.00000 0.985
7211.00000 0.9848
7214.00000 0.9846
7217.00000 0.9843
7220.00000 0.9841
7224.00000 0.9844
7227.00000 0.9844
7230.00000 0.9841
7234.00000 0.9842
7237.00000 0.9835
7240.00000 0.9831
7243.00000 0.9829
7247.00000 0.9825
7250.00000 0.9824
7253.00000 0.983
7257.00000 0.9831
7260.00000 0.9828
7263.00000 0.9833
7266.00000 0.9833
7270.00000 0.9823
7273.00000 0.982
7276.00000 0.9824
7279.00000 0.9824
7283.00000 0.9822
7286.00000 0.9825
7289.00000 0.9825
7293.00000 0.9819
7296.00000 0.9814
7299.00000 0.981
7302.00000 0.9806
7306.00000 0.9801
7309.00000 0.9803
7312.00000 0.9806
7315.00000 0.9808
7319.00000 0.9816
7322.00000 0.9818
7325.00000 0.9818
7329.00000 0.9815
7332.00000 0.9805
7335.00000 0.9797
7338.00000 0.98
7342.00000 0.9795
7345.00000 0.9793
7348.00000 0.9802
7351.00000 0.9811
7355.00000 0.9805
7358.00000 0.9808
7361.00000 0.9803
7365.00000 0.9799
7368.00000 0.9787
7371.00000 0.9784
7374.00000 0.9779
7378.00000 0.9777
7381.00000 0.9771
7384.00000 0.9771
7387.00000 0.9772
7391.00000 0.9774
7394.00000 0.9774
7397.00000 0.9773
7400.00000 0.9776
7404.00000 0.9777
7407.00000 0.9775
7410.00000 0.9777
7413.00000 0.9783
7417.00000 0.9783
7420.00000 0.9776
7423.00000 0.9776
7427.00000 0.9777
7430.00000 0.9778
7433.00000 0.9769
7436.00000 0.9767
7440.00000 0.9762
7443.00000 0.9759
7446.00000 0.9747
7449.00000 0.9753
7453.00000 0.9755
7456.00000 0.9759
7459.00000 0.9758
7462.00000 0.9758
7466.00000 0.9756
7469.00000 0.9759
7472.00000 0.9758
7475.00000 0.9758
7479.00000 0.9763
7482.00000 0.9762
7485.00000 0.9755
7488.00000 0.9746
7492.00000 0.9739
7495.00000 0.9734
7498.00000 0.9733
7501.00000 0.9737
7505.00000 0.974
7508.00000 0.9739
7511.00000 0.9732
7514.00000 0.9728
7518.00000 0.972
7521.00000 0.9716
7524.00000 0.9719
7527.00000 0.9726
7531.00000 0.9721
7534.00000 0.9725
7537.00000 0.9725
7540.00000 0.9726
7544.00000 0.9718
7547.00000 0.972
7550.00000 0.9715
7553.00000 0.972
7556.00000 0.9718
7560.00000 0.9721
7563.00000 0.9722
7566.00000 0.972
7569.00000 0.9715
7573.00000 0.9717
7576.00000 0.9715
7579.00000 0.9716
7582.00000 0.9719
7586.00000 0.9716
7589.00000 0.9703
7592.00000 0.9698
7595.00000 0.9688
7599.00000 0.9682
7602.00000 0.9683
7605.00000 0.9686
7608.00000 0.9689
7612.00000 0.9693
7615.00000 0.969
7618.00000 0.9691
7621.00000 0.9694
7624.00000 0.9692
7628.00000 0.969
7631.00000 0.969
7634.00000 0.9687
7637.00000 0.9685
7641.00000 0.9673
7644.00000 0.967
7647.00000 0.9667
7650.00000 0.9661
7654.00000 0.9656
7657.00000 0.9658
7660.00000 0.9655
7663.00000 0.9655
7666.00000 0.9651
7670.00000 0.9648
7673.00000 0.9646
7676.00000 0.9648
7679.00000 0.9644
7683.00000 0.9649
7686.00000 0.9649
7689.00000 0.9659
7692.00000 0.9656
7695.00000 0.9661
7699.00000 0.9652
7702.00000 0.9648
7705.00000 0.9633
7708.00000 0.9632
7712.00000 0.9632
7715.00000 0.9636
7718.00000 0.9635
7721.00000 0.9641
7724.00000 0.964
7728.00000 0.9637
7731.00000 0.963
7734.00000 0.9633
7737.00000 0.9634
7741.00000 0.9631
7744.00000 0.9628
7747.00000 0.9628
7750.00000 0.9629
7753.00000 0.9624
7757.00000 0.9623
7760.00000 0.962
7763.00000 0.9616
7766.00000 0.9609
7769.00000 0.9606
7773.00000 0.9602
7776.00000 0.9598
7779.00000 0.96
7782.00000 0.9594
7785.00000 0.9588
7789.00000 0.9589
7792.00000 0.959
7795.00000 0.9584
7798.00000 0.9586
7802.00000 0.9586
7805.00000 0.9592
7808.00000 0.9593
7811.00000 0.9589
7814.00000 0.9589
7818.00000 0.9592
7821.00000 0.958
7824.00000 0.9581
7827.00000 0.9586
7830.00000 0.9585
7834.00000 0.9584
7837.00000 0.9588
7840.00000 0.9578
7843.00000 0.9575
7846.00000 0.9571
7850.00000 0.9566
7853.00000 0.9564
7856.00000 0.9566
7859.00000 0.956
7862.00000 0.956
7866.00000 0.9562
7869.00000 0.9555
7872.00000 0.9549
7875.00000 0.9561
7878.00000 0.9558
7882.00000 0.9553
7885.00000 0.955
7888.00000 0.9556
7891.00000 0.9541
7894.00000 0.954
7898.00000 0.953
7901.00000 0.953
7904.00000 0.9525
7907.00000 0.9534
7910.00000 0.953
7914.00000 0.9532
7917.00000 0.9534
7920.00000 0.9532
7923.00000 0.9517
7926.00000 0.9516
7929.00000 0.9518
7933.00000 0.9515
7936.00000 0.951
7939.00000 0.9517
7942.00000 0.9519
7945.00000 0.952
7949.00000 0.9521
7952.00000 0.9517
7955.00000 0.9519
7958.00000 0.9508
7961.00000 0.9503
7965.00000 0.9494
7968.00000 0.9498
7971.00000 0.9487
7974.00000 0.9489
7977.00000 0.9485
7980.00000 0.9491
7984.00000 0.9487
7987.00000 0.9485
7990.00000 0.9486
7993.00000 0.9485
7996.00000 0.9484
8000.00000 0.9483
8003.00000 0.949
8006.00000 0.9493
8009.00000 0.9499
8012.00000 0.949
8015.00000 0.949
8019.00000 0.9477
8022.00000 0.9473
8025.00000 0.9469
8028.00000 0.9472
8031.00000 0.9469
8035.00000 0.9469
8038.00000 0.9467
8041.00000 0.9459
8044.00000 0.9457
8047.00000 0.9465
8050.00000 0.947
8054.00000 0.9467
8057.00000 0.9467
8060.00000 0.9464
8063.00000 0.9455
8066.00000 0.9448
8069.00000 0.9443
8073.00000 0.9449
8076.00000 0.945
8079.00000 0.9448
8082.00000 0.9447
8085.00000 0.9445
8088.00000 0.9435
8092.00000 0.9428
8095.00000 0.9427
8098.00000 0.9435
8101.00000 0.9444
8104.00000 0.9441
8107.00000 0.9438
8111.00000 0.944
8114.00000 0.9433
8117.00000 0.9424
8120.00000 0.9435
8123.00000 0.9435
8126.00000 0.9426
8130.00000 0.9422
8133.00000 0.9423
8136.00000 0.9425
8139.00000 0.9425
8142.00000 0.9425
8145.00000 0.9418
8149.00000 0.9417
8152.00000 0.9407
8155.00000 0.9406
8158.00000 0.9397
8161.00000 0.9405
8164.00000 0.9396
8168.00000 0.9393
8171.00000 0.9392
8174.00000 0.9394
8177.00000 0.9388
8180.00000 0.9392
8183.00000 0.9394
8186.00000 0.9394
8190.00000 0.9392
8193.00000 0.9391
8196.00000 0.9396
8199.00000 0.9391
8202.00000 0.9384
8205.00000 0.9383
8209.00000 0.9373
8212.00000 0.9365
8215.00000 0.9354
8218.00000 0.9352
8221.00000 0.9353
8224.00000 0.9355
8227.00000 0.9349
8231.00000 0.9346
8234.00000 0.9341
8237.00000 0.9335
8240.00000 0.9329
8243.00000 0.9329
8246.00000 0.9333
8249.00000 0.9338
8253.00000 0.9342
8256.00000 0.9359
8259.00000 0.9362
8262.00000 0.9363
8265.00000 0.9356
8268.00000 0.9356
8272.00000 0.9339
8275.00000 0.9336
8278.00000 0.9331
8281.00000 0.9334
8284.00000 0.9326
8287.00000 0.9318
8290.00000 0.9316
8294.00000 0.9314
8297.00000 0.9312
8300.00000 0.9315
8303.00000 0.9326
8306.00000 0.9318
8309.00000 0.9318
8312.00000 0.9314
8315.00000 0.9304
8319.00000 0.9297
8322.00000 0.93
8325.00000 0.9298
8328.00000 0.9303
8331.00000 0.9308
8334.00000 0.9309
8337.00000 0.9306
8341.00000 0.9306
8344.00000 0.9301
8347.00000 0.9298
8350.00000 0.9291
8353.00000 0.9291
8356.00000 0.9288
8359.00000 0.9282
8362.00000 0.9279
8366.00000 0.9287
8369.00000 0.9285
8372.00000 0.9282
8375.00000 0.929
8378.00000 0.929
8381.00000 0.9287
8384.00000 0.9288
8388.00000 0.9285
8391.00000 0.927
8394.00000 0.9267
8397.00000 0.9262
8400.00000 0.9264
8403.00000 0.9264
8406.00000 0.927
8409.00000 0.9264
8413.00000 0.9262
8416.00000 0.9254
8419.00000 0.9254
8422.00000 0.9248
8425.00000 0.9252
8428.00000 0.925
8431.00000 0.9254
8434.00000 0.9245
8437.00000 0.9246
8441.00000 0.9244
8444.00000 0.9234
8447.00000 0.9227
8450.00000 0.9236
8453.00000 0.9237
8456.00000 0.9236
8459.00000 0.9251
8462.00000 0.9253
8466.00000 0.9248
8469.00000 0.9248
8472.00000 0.9249
8475.00000 0.9235
8478.00000 0.9231
8481.00000 0.9223
8484.00000 0.9218
8487.00000 0.9209
8490.00000 0.921
8494.00000 0.9201
8497.00000 0.9201
8500.00000 0.9207
8503.00000 0.9209
8506.00000 0.9208
8509.00000 0.9209
8512.00000 0.9211
8515.00000 0.9203
8518.00000 0.9197
8522.00000 0.9194
8525.00000 0.9183
8528.00000 0.9177
8531.00000 0.9174
8534.00000 0.9175
8537.00000 0.9176
8540.00000 0.9188
8543.00000 0.9192
8546.00000 0.9192
8550.00000 0.9187
8553.00000 0.918
8556.00000 0.9181
8559.00000 0.9175
8562.00000 0.9174
8565.00000 0.9165
8568.00000 0.9168
8571.00000 0.9152
8574.00000 0.9152
8577.00000 0.9149
8581.00000 0.9154
8584.00000 0.9153
8587.00000 0.9158
8590.00000 0.9155
8593.00000 0.9155
8596.00000 0.9156
8599.00000 0.9154
8602.00000 0.9162
8605.00000 0.9164
8608.00000 0.916
8612.00000 0.9159
8615.00000 0.9156
8618.00000 0.915
8621.00000 0.9144
8624.00000 0.914
8627.00000 0.9138
8630.00000 0.9137
8633.00000 0.913
8636.00000 0.9135
8639.00000 0.9132
8642.00000 0.9128
8646.00000 0.9124
8649.00000 0.9124
8652.00000 0.9116
8655.00000 0.912
8658.00000 0.9121
8661.00000 0.9124
8664.00000 0.9119
8667.00000 0.9123
8670.00000 0.9119
8673.00000 0.9117
8676.00000 0.9116
8680.00000 0.9118
8683.00000 0.9111
8686.00000 0.9109
8689.00000 0.9105
8692.00000 0.9103
8695.00000 0.9107
8698.00000 0.9104
8701.00000 0.9099
8704.00000 0.9097
8707.00000 0.9087
8710.00000 0.9072
8713.00000 0.9066
8717.00000 0.9067
8720.00000 0.907
8723.00000 0.9071
8726.00000 0.9085
8729.00000 0.9086
8732.00000 0.9075
8735.00000 0.9073
8738.00000 0.9069
8741.00000 0.9061
8744.00000 0.9061
8747.00000 0.9066
8750.00000 0.9053
8753.00000 0.9053
8757.00000 0.9052
8760.00000 0.9053
8763.00000 0.9064
8766.00000 0.9075
8769.00000 0.9079
8772.00000 0.9076
8775.00000 0.9066
8778.00000 0.9058
8781.00000 0.9043
8784.00000 0.9039
8787.00000 0.9037
8790.00000 0.9047
8793.00000 0.9045
8797.00000 0.9052
8800.00000 0.9045
8803.00000 0.9043
8806.00000 0.9037
8809.00000 0.9026
8812.00000 0.9024
8815.00000 0.9021
8818.00000 0.9015
8821.00000 0.9004
8824.00000 0.9012
8827.00000 0.9004
8830.00000 0.9009
8833.00000 0.9007
8836.00000 0.9009
8839.00000 0.9005
8843.00000 0.9013
8846.00000 0.9013
8849.00000 0.9014
8852.00000 0.902
8855.00000 0.9011
8858.00000 0.8998
8861.00000 0.8988
8864.00000 0.8988
8867.00000 0.8985
8870.00000 0.8991
8873.00000 0.8994
8876.00000 0.8991
8879.00000 0.8991
8882.00000 0.8984
8885.00000 0.8976
8888.00000 0.8969
8891.00000 0.8969
8895.00000 0.8963
8898.00000 0.8966
8901.00000 0.8969
8904.00000 0.8976
8907.00000 0.8984
8910.00000 0.899
8913.00000 0.8988
8916.00000 0.8986
8919.00000 0.8985
8922.00000 0.8977
8925.00000 0.8963
8928.00000 0.8959
8931.00000 0.8956
8934.00000 0.8951
8937.00000 0.8958
8940.00000 0.8973
8943.00000 0.8979
8946.00000 0.8971
8949.00000 0.897
8953.00000 0.896
8956.00000 0.8949
8959.00000 0.8936
8962.00000 0.895
8965.00000 0.8946
8968.00000 0.8943
8971.00000 0.8935
8974.00000 0.894
8977.00000 0.8932
8980.00000 0.8932
8983.00000 0.8935
8986.00000 0.8934
8989.00000 0.8933
8992.00000 0.8926
8995.00000 0.8926
8998.00000 0.8927
9001.00000 0.8918
9004.00000 0.8909
9007.00000 0.8907
9010.00000 0.8906
9013.00000 0.8904
9016.00000 0.892
9019.00000 0.8911
9022.00000 0.8907
9026.00000 0.8905
9029.00000 0.8897
9032.00000 0.8889
9035.00000 0.8896
9038.00000 0.8907
9041.00000 0.8911
9044.00000 0.8904
9047.00000 0.8911
9050.00000 0.8911
9053.00000 0.8901
9056.00000 0.889
9059.00000 0.8891
9062.00000 0.8876
9065.00000 0.8883
9068.00000 0.8884
9071.00000 0.8888
9074.00000 0.8893
9077.00000 0.89
9080.00000 0.8892
9083.00000 0.8891
9086.00000 0.8884
9089.00000 0.8874
9092.00000 0.8868
9095.00000 0.8863
9098.00000 0.8861
9101.00000 0.886
9104.00000 0.8868
9107.00000 0.8868
9110.00000 0.8866
9113.00000 0.8873
9116.00000 0.8872
9119.00000 0.8869
9122.00000 0.8865
9126.00000 0.8865
9129.00000 0.8848
9132.00000 0.8837
9135.00000 0.8831
9138.00000 0.8824
9141.00000 0.8817
9144.00000 0.8824
9147.00000 0.8832
9150.00000 0.883
9153.00000 0.8832
9156.00000 0.8832
9159.00000 0.8824
9162.00000 0.883
9165.00000 0.8834
9168.00000 0.8836
9171.00000 0.8843
9174.00000 0.8844
9177.00000 0.8831
9180.00000 0.8829
9183.00000 0.8824
9186.00000 0.8823
9189.00000 0.8815
9192.00000 0.8822
9195.00000 0.8815
9198.00000 0.8814
9201.00000 0.8811
9204.00000 0.8814
9207.00000 0.8809
9210.00000 0.8819
9213.00000 0.8817
9216.00000 0.8807
9219.00000 0.8806
9222.00000 0.8808
9225.00000 0.8798
9228.00000 0.8811
9231.00000 0.8815
9234.00000 0.8817
9237.00000 0.8805
9240.00000 0.8798
9243.00000 0.8789
9246.00000 0.8788
9249.00000 0.8783
9252.00000 0.879
9255.00000 0.8791
9258.00000 0.8792
9261.00000 0.8784
9264.00000 0.8777
9267.00000 0.8779
9270.00000 0.8787
9273.00000 0.8769
9276.00000 0.8776
9279.00000 0.8767
9282.00000 0.876
9285.00000 0.8756
9288.00000 0.8769
9291.00000 0.877
9294.00000 0.8794
9297.00000 0.8796
9300.00000 0.8795
9303.00000 0.8791
9306.00000 0.8785
9309.00000 0.8772
9312.00000 0.8769
9315.00000 0.8761
9318.00000 0.8759
9321.00000 0.8761
9324.00000 0.8765
9327.00000 0.8768
9330.00000 0.8778
9333.00000 0.8772
9336.00000 0.8769
9339.00000 0.8764
9342.00000 0.8756
9345.00000 0.8753
9348.00000 0.8748
9351.00000 0.8746
9354.00000 0.8754
9357.00000 0.8757
9360.00000 0.876
9363.00000 0.8781
9366.00000 0.8787
9369.00000 0.8786
9372.00000 0.877
9375.00000 0.8768
9378.00000 0.8743
9381.00000 0.8739
9384.00000 0.8739
9387.00000 0.8744
9390.00000 0.8731
9393.00000 0.8721
9396.00000 0.8716
9399.00000 0.871
9402.00000 0.8712
9405.00000 0.8703
9408.00000 0.8725
9411.00000 0.8719
9414.00000 0.8734
9417.00000 0.8745
9420.00000 0.8742
9423.00000 0.8749
9426.00000 0.8746
9429.00000 0.8729
9432.00000 0.8731
9435.00000 0.8737
9438.00000 0.872
9441.00000 0.873
9443.00000 0.8712
9446.00000 0.8683
9449.00000 0.8677
9452.00000 0.8663
9455.00000 0.8656
9458.00000 0.8675
9461.00000 0.8712
9464.00000 0.8734
9467.00000 0.8766
9470.00000 0.8756
9473.00000 0.8749
9476.00000 0.8717
9479.00000 0.8723
9482.00000 0.8696
9485.00000 0.8698
9488.00000 0.8686
9491.00000 0.8693
9494.00000 0.867
9497.00000 0.8674
9500.00000 0.8673
9503.00000 0.8677
9506.00000 0.8686
9509.00000 0.8695
9512.00000 0.8686
9515.00000 0.8694
9518.00000 0.8693
9521.00000 0.8665
9524.00000 0.8641
9527.00000 0.8646
9530.00000 0.8631
9533.00000 0.863
9536.00000 0.8652
9539.00000 0.8667
9541.00000 0.8656
9544.00000 0.8657
9547.00000 0.8653
9550.00000 0.8668
9553.00000 0.8653
9556.00000 0.8659
9559.00000 0.8671
9562.00000 0.8677
9565.00000 0.8668
9568.00000 0.8674
9571.00000 0.8672
9574.00000 0.8666
9577.00000 0.8666
9580.00000 0.8661
9583.00000 0.8667
9586.00000 0.8674
9589.00000 0.8675
9592.00000 0.8672
9595.00000 0.8662
9598.00000 0.865
9601.00000 0.8662
9604.00000 0.8674
9607.00000 0.8672
9609.00000 0.8677
9612.00000 0.8679
9615.00000 0.8658
9618.00000 0.863
9621.00000 0.862
9624.00000 0.861
9627.00000 0.8621
9630.00000 0.8631
9633.00000 0.8635
9636.00000 0.8646
9639.00000 0.8653
9642.00000 0.8648
9645.00000 0.8652
9648.00000 0.8656
9651.00000 0.8663
9654.00000 0.8669
9657.00000 0.867
9660.00000 0.8659
9663.00000 0.8657
9666.00000 0.8645
9668.00000 0.8633
9671.00000 0.8634
9674.00000 0.8632
9677.00000 0.8635
9680.00000 0.8628
9683.00000 0.8624
9686.00000 0.862
9689.00000 0.8607
9692.00000 0.8603
9695.00000 0.8606
9698.00000 0.8614
9701.00000 0.8601
9704.00000 0.8619
9707.00000 0.8623
9710.00000 0.8629
9713.00000 0.8623
9715.00000 0.8632
9718.00000 0.8635
9721.00000 0.8625
9724.00000 0.8603
9727.00000 0.8607
9730.00000 0.8601
9733.00000 0.8579
9736.00000 0.8566
9739.00000 0.8571
9742.00000 0.8564
9745.00000 0.8553
9748.00000 0.8543
9751.00000 0.8556
9754.00000 0.8567
9757.00000 0.8572
9759.00000 0.8581
9762.00000 0.8585
9765.00000 0.858
9768.00000 0.8585
9771.00000 0.8574
9774.00000 0.857
9777.00000 0.8587
9780.00000 0.8592
9783.00000 0.8574
9786.00000 0.858
9789.00000 0.8567
9792.00000 0.8564
9795.00000 0.8566
9798.00000 0.8583
9800.00000 0.8593
9803.00000 0.8607
9806.00000 0.861
9809.00000 0.8612
9812.00000 0.8585
9815.00000 0.8577
9818.00000 0.8568
9821.00000 0.8559
9824.00000 0.8565
9827.00000 0.8567
9830.00000 0.8568
9833.00000 0.859
9836.00000 0.8602
9838.00000 0.8574
9841.00000 0.8581
9844.00000 0.8571
9847.00000 0.8555
9850.00000 0.855
9853.00000 0.8569
9856.00000 0.8592
9859.00000 0.8583
9862.00000 0.8587
9865.00000 0.8597
9868.00000 0.8597
9871.00000 0.8567
9873.00000 0.8566
9876.00000 0.8563
9879.00000 0.8549
9882.00000 0.8544
9885.00000 0.8557
9888.00000 0.8573
9891.00000 0.8575
9894.00000 0.8568
9897.00000 0.8571
9900.00000 0.8556
9903.00000 0.8556
9905.00000 0.8565
9908.00000 0.8555
9911.00000 0.8555
9914.00000 0.8575
9917.00000 0.8563
9920.00000 0.856
9923.00000 0.8581
9926.00000 0.8596
9929.00000 0.8585
9932.00000 0.8593
9935.00000 0.8572
9937.00000 0.8572
9940.00000 0.854
9943.00000 0.8542
9946.00000 0.8532
9949.00000 0.854
9952.00000 0.8519
9955.00000 0.8511
9958.00000 0.8505
9961.00000 0.8515
9964.00000 0.851
9966.00000 0.8518
9969.00000 0.853
9972.00000 0.8524
9975.00000 0.8517
9978.00000 0.852
9981.00000 0.8515
9984.00000 0.8498
9987.00000 0.8514
9990.00000 0.8514
9993.00000 0.853
9995.00000 0.8534
9998.00000 0.8552
10001.00000 0.8535
11001.09961 0.0
