# %ECSV 0.9
# ---
# datatype:
# - {name: wavelength, unit: Angstrom, datatype: float32}
# - {name: response, datatype: float32}
# meta: !!omap
# - {band_name: WBP6296}
# - {group_name: IMACS}
wavelength response
5386.68018 0.0
5985.20020 0.00142
5988.70020 0.00144
5992.10010 0.00177
5995.60010 0.00204
5999.00000 0.00231
6002.50000 0.00254
6005.89990 0.00257
6009.29980 0.00281
6012.79980 0.0028
6016.20020 0.00307
6019.70020 0.00344
6023.10010 0.00384
6026.60010 0.00424
6030.00000 0.0045
6033.39990 0.0047
6036.89990 0.00487
6040.29980 0.00504
6043.70020 0.00529
6047.20020 0.00532
6050.60010 0.00554
6054.10010 0.00559
6057.50000 0.00559
6060.89990 0.00558
6064.39990 0.00557
6067.79980 0.00581
6071.20020 0.00608
6074.70020 0.00638
6078.10010 0.00679
6081.50000 0.00731
6085.00000 0.00776
6088.39990 0.00818
6091.79980 0.00865
6095.29980 0.00935
6098.70020 0.01
6102.10010 0.01076
6105.60010 0.01139
6109.00000 0.01202
6112.39990 0.01268
6115.79980 0.01341
6119.29980 0.01424
6122.70020 0.01515
6126.10010 0.01616
6129.60010 0.01739
6133.00000 0.01847
6136.39990 0.01969
6139.79980 0.021
6143.29980 0.02231
6146.70020 0.02406
6150.10010 0.02577
6153.50000 0.02764
6157.00000 0.02946
6160.39990 0.03165
6163.79980 0.03392
6167.20020 0.03627
6170.60010 0.03889
6174.10010 0.04176
6177.50000 0.04476
6180.89990 0.04809
6184.29980 0.05144
6187.79980 0.0552
6191.20020 0.05925
6194.60010 0.0637
6198.00000 0.06847
6201.39990 0.07366
6204.79980 0.07914
6208.29980 0.08511
6211.70020 0.09153
6215.10010 0.09855
6218.50000 0.10616
6221.89990 0.11434
6225.29980 0.12307
6228.79980 0.13248
6232.20020 0.14256
6235.60010 0.15335
6239.00000 0.16489
6242.39990 0.17744
6245.79980 0.19046
6249.20020 0.20451
6252.60010 0.21935
6256.10010 0.23509
6259.50000 0.2518
6262.89990 0.2695
6266.29980 0.2882
6269.70020 0.30801
6273.10010 0.32827
6276.50000 0.3493
6279.89990 0.37114
6283.29980 0.39366
6286.70020 0.41658
6290.10010 0.44021
6293.50000 0.46432
6297.00000 0.48864
6300.39990 0.51287
6303.79980 0.53712
6307.20020 0.56125
6310.60010 0.58535
6314.00000 0.60866
6317.39990 0.63173
6320.79980 0.65411
6324.20020 0.6758
6327.60010 0.69642
6331.00000 0.71652
6334.39990 0.73549
6337.79980 0.75348
6341.20020 0.77063
6344.60010 0.78627
6348.00000 0.80096
6351.39990 0.81464
6354.79980 0.82715
6358.20020 0.83881
6361.60010 0.84901
6365.00000 0.85888
6368.39990 0.86774
6371.79980 0.87566
6375.20020 0.88261
6378.60010 0.88894
6382.00000 0.8944
6385.39990 0.89933
6388.70020 0.90374
6392.10010 0.90766
6395.50000 0.91108
6398.89990 0.91426
6402.29980 0.91694
6405.70020 0.91906
6409.10010 0.92103
6412.50000 0.92305
6415.89990 0.92446
6419.29980 0.92609
6422.70020 0.92752
6426.10010 0.92875
6429.39990 0.92986
6432.79980 0.93092
6436.20020 0.93188
6439.60010 0.93283
6443.00000 0.93382
6446.39990 0.9346
6449.79980 0.93526
6453.20020 0.93614
6456.50000 0.93664
6459.89990 0.93735
6463.29980 0.938
6466.70020 0.93853
6470.10010 0.93908
6473.50000 0.93987
6476.79980 0.9404
6480.20020 0.94091
6483.60010 0.94156
6487.00000 0.94187
6490.39990 0.9423
6493.79980 0.9427
6497.10010 0.94294
6500.50000 0.94335
6503.89990 0.9439
6507.29980 0.94436
6510.60010 0.94465
6514.00000 0.94503
6517.39990 0.9454
6520.79980 0.94558
6524.20020 0.94605
6527.50000 0.94639
6530.89990 0.94673
6534.29980 0.94694
6537.70020 0.94692
6541.00000 0.94657
6544.39990 0.9463
6547.79980 0.94621
6551.20020 0.94598
6554.50000 0.94579
6557.89990 0.94554
6561.29980 0.94521
6564.60010 0.94493
6568.00000 0.94477
6571.39990 0.94438
6574.79980 0.94399
6578.10010 0.94349
6581.50000 0.94298
6584.89990 0.9422
6588.20020 0.94153
6591.60010 0.94075
6595.00000 0.93986
6598.29980 0.93922
6601.70020 0.93858
6605.10010 0.93791
6608.39990 0.93728
6611.79980 0.93658
6615.20020 0.93618
6618.50000 0.93549
6621.89990 0.93488
6625.29980 0.93434
6628.60010 0.93424
6632.00000 0.93387
6635.29980 0.93329
6638.70020 0.93264
6642.10010 0.9321
6645.39990 0.93155
6648.79980 0.93086
6652.10010 0.93041
6655.50000 0.9301
6658.89990 0.92978
6662.20020 0.92931
6665.60010 0.92845
6668.89990 0.92823
6672.29980 0.92799
6675.70020 0.92781
6679.00000 0.92747
6682.39990 0.92724
6685.70020 0.92718
6689.10010 0.92701
6692.39990 0.92668
6695.79980 0.92642
6699.10010 0.92634
6702.50000 0.92618
6705.89990 0.92573
6709.20020 0.92544
6712.60010 0.92475
6715.89990 0.9246
6719.29980 0.92435
6722.60010 0.92401
6726.00000 0.92384
6729.29980 0.92394
6732.70020 0.92394
6736.00000 0.92414
6739.39990 0.92412
6742.70020 0.92428
6746.10010 0.92434
6749.39990 0.92483
6752.79980 0.92489
6756.10010 0.92503
6759.39990 0.92511
6762.79980 0.92536
6766.10010 0.92549
6769.50000 0.9256
6772.79980 0.92576
6776.20020 0.92605
6779.50000 0.92621
6782.89990 0.92649
6786.20020 0.9269
6789.50000 0.92737
6792.89990 0.92768
6796.20020 0.9284
6799.60010 0.92873
6802.89990 0.92919
6806.20020 0.92973
6809.60010 0.92983
6812.89990 0.93033
6816.29980 0.93086
6819.60010 0.93129
6822.89990 0.93162
6826.29980 0.93183
6829.60010 0.93229
6833.00000 0.93286
6836.29980 0.93313
6839.60010 0.93361
6843.00000 0.93403
6846.29980 0.93427
6849.60010 0.93473
6853.00000 0.93506
6856.29980 0.93527
6859.60010 0.93537
6863.00000 0.93565
6866.29980 0.93593
6869.60010 0.93601
6873.00000 0.93629
6876.29980 0.93638
6879.60010 0.93665
6883.00000 0.93738
6886.29980 0.93783
6889.60010 0.93835
6892.89990 0.93879
6896.29980 0.93902
6899.60010 0.93947
6902.89990 0.93979
6906.20020 0.94015
6909.60010 0.94059
6912.89990 0.9409
6916.20020 0.94087
6919.60010 0.9408
6922.89990 0.94076
6926.20020 0.94082
6929.50000 0.94113
6932.89990 0.94162
6936.20020 0.9416
6939.50000 0.94175
6942.79980 0.94152
6946.10010 0.94143
6949.50000 0.94167
6952.79980 0.94209
6956.10010 0.94215
6959.39990 0.94221
6962.70020 0.94224
6966.10010 0.94202
6969.39990 0.94182
6972.70020 0.94176
6976.00000 0.9417
6979.29980 0.9418
6982.70020 0.94173
6986.00000 0.94164
6989.29980 0.94178
6992.60010 0.94175
6995.89990 0.94138
6999.20020 0.94109
7002.50000 0.94086
7005.89990 0.94074
7009.20020 0.94073
7012.50000 0.94049
7015.79980 0.94032
7019.10010 0.94034
7022.39990 0.94007
7025.70020 0.93953
7029.00000 0.93974
7032.39990 0.94001
7035.70020 0.94001
7039.00000 0.94026
7042.29980 0.94012
7045.60010 0.93995
7048.89990 0.93996
7052.20020 0.93978
7055.50000 0.9397
7058.79980 0.93941
7062.10010 0.93913
7065.39990 0.93851
7068.70020 0.93807
7072.00000 0.93767
7075.39990 0.93722
7078.70020 0.93685
7082.00000 0.93658
7085.29980 0.93625
7088.60010 0.93603
7091.89990 0.93549
7095.20020 0.93537
7098.50000 0.93528
7101.79980 0.93491
7105.10010 0.93499
7108.39990 0.93504
7111.70020 0.93481
7115.00000 0.93467
7118.29980 0.93451
7121.60010 0.93463
7124.89990 0.93453
7128.20020 0.9347
7131.50000 0.93466
7134.79980 0.93444
7138.10010 0.93435
7141.39990 0.93403
7144.70020 0.93396
7148.00000 0.93367
7151.20020 0.93365
7154.50000 0.93342
7157.79980 0.93294
7161.10010 0.93282
7164.39990 0.9325
7167.70020 0.93212
7171.00000 0.9321
7174.29980 0.93219
7177.60010 0.93209
7180.89990 0.93165
7184.20020 0.93167
7187.50000 0.93173
7190.79980 0.93177
7194.00000 0.93173
7197.29980 0.93158
7200.60010 0.93142
7203.89990 0.93126
7207.20020 0.93109
7210.50000 0.93093
7213.79980 0.93058
7217.10010 0.93068
7220.29980 0.93063
7223.60010 0.93055
7226.89990 0.93053
7230.20020 0.93039
7233.50000 0.9305
7236.79980 0.93041
7240.00000 0.9305
7243.29980 0.93057
7246.60010 0.93044
7249.89990 0.9307
7253.20020 0.93061
7256.50000 0.93061
7259.70020 0.93041
7263.00000 0.93038
7266.29980 0.93061
7269.60010 0.93056
7272.89990 0.93085
7276.10010 0.93109
7279.39990 0.93124
7282.70020 0.93152
7286.00000 0.93152
7289.20020 0.93152
7292.50000 0.93182
7295.79980 0.93184
7299.10010 0.93218
7302.29980 0.93212
7305.60010 0.93232
7308.89990 0.93225
7312.20020 0.93221
7315.39990 0.93223
7318.70020 0.93208
7322.00000 0.93225
7325.29980 0.93239
7328.50000 0.93253
7331.79980 0.9329
7335.10010 0.93266
7338.29980 0.93281
7341.60010 0.9328
7344.89990 0.93296
7348.10010 0.93284
7351.39990 0.93268
7354.70020 0.93282
7357.89990 0.93283
7361.20020 0.93262
7364.50000 0.93211
7367.70020 0.93205
7371.00000 0.93211
7374.29980 0.93203
7377.50000 0.9321
7380.79980 0.93194
7384.10010 0.93202
7387.29980 0.9322
7390.60010 0.9321
7393.89990 0.93183
7397.10010 0.93201
7400.39990 0.93228
7403.60010 0.93208
7406.89990 0.93217
7410.20020 0.93207
7413.39990 0.93168
7416.70020 0.93165
7419.89990 0.93149
7423.20020 0.93109
7426.50000 0.9309
7429.70020 0.93081
7433.00000 0.93041
7436.20020 0.9301
7439.50000 0.92995
7442.79980 0.9295
7446.00000 0.92918
7449.29980 0.9291
7452.50000 0.92877
7455.79980 0.92824
7459.00000 0.92819
7462.29980 0.9282
7465.50000 0.92793
7468.79980 0.92778
7472.00000 0.92765
7475.29980 0.92748
7478.50000 0.92715
7481.79980 0.92722
7485.00000 0.9271
7488.29980 0.92695
7491.50000 0.92692
7494.79980 0.92672
7498.00000 0.92634
7501.29980 0.92634
7504.50000 0.92618
7507.79980 0.92599
7511.00000 0.9257
7514.29980 0.92561
7517.50000 0.92551
7520.79980 0.9255
7524.00000 0.92548
7527.29980 0.92551
7530.50000 0.92539
7533.70020 0.92537
7537.00000 0.92498
7540.20020 0.92525
7543.50000 0.92531
7546.70020 0.92545
7550.00000 0.92549
7553.20020 0.92528
7556.39990 0.92499
7559.70020 0.92493
7562.89990 0.9251
7566.20020 0.92521
7569.39990 0.92542
7572.60010 0.92579
7575.89990 0.92543
7579.10010 0.92554
7582.39990 0.92562
7585.60010 0.92583
7588.79980 0.92615
7592.10010 0.92647
7595.29980 0.92654
7598.50000 0.92643
7601.79980 0.92675
7605.00000 0.92682
7608.20020 0.92683
7611.50000 0.92742
7614.70020 0.92704
7617.89990 0.92705
7621.20020 0.92703
7624.39990 0.92747
7627.60010 0.92771
7630.89990 0.92802
7634.10010 0.92856
7637.29980 0.9288
7640.60010 0.9286
7643.79980 0.92864
7647.00000 0.92827
7650.20020 0.92892
7653.50000 0.92917
7656.70020 0.92914
7659.89990 0.92866
7663.20020 0.92828
7666.39990 0.92792
7669.60010 0.9274
7672.79980 0.92709
7676.10010 0.92702
7679.29980 0.92674
7682.50000 0.92656
7685.70020 0.92591
7689.00000 0.92501
7692.20020 0.92457
7695.39990 0.92399
7698.60010 0.92372
7701.79980 0.92342
7705.10010 0.92344
7708.29980 0.92287
7711.50000 0.92244
7714.70020 0.92223
7717.89990 0.92192
7721.20020 0.92162
7724.39990 0.92141
7727.60010 0.92141
7730.79980 0.92121
7734.00000 0.921
7737.20020 0.9208
7740.50000 0.92033
7743.70020 0.92003
7746.89990 0.91981
7750.10010 0.91954
7753.29980 0.91959
7756.50000 0.91955
7759.70020 0.91968
7763.00000 0.91926
7766.20020 0.91924
7769.39990 0.9194
7772.60010 0.91969
7775.79980 0.91975
7779.00000 0.91986
7782.20020 0.91998
7785.39990 0.92013
7788.70020 0.92016
7791.89990 0.92039
7795.10010 0.92074
7798.29980 0.92125
7801.50000 0.92135
7804.70020 0.92134
7807.89990 0.92175
7811.10010 0.92207
7814.29980 0.92193
7817.50000 0.92225
7820.70020 0.92254
7823.89990 0.92318
7827.10010 0.92322
7830.29980 0.92311
7833.50000 0.92306
7836.70020 0.92344
7839.89990 0.92335
7843.10010 0.92255
7846.39990 0.92219
7849.60010 0.92237
7852.79980 0.9221
7856.00000 0.92163
7859.20020 0.92115
7862.39990 0.92107
7865.60010 0.92092
7868.79980 0.92076
7871.89990 0.92034
7875.10010 0.92003
7878.29980 0.9198
7881.50000 0.91956
7884.70020 0.91917
7887.89990 0.91866
7891.10010 0.91797
7894.29980 0.91725
7897.50000 0.91631
7900.70020 0.91555
7903.89990 0.91465
7907.10010 0.91376
7910.29980 0.91301
7913.50000 0.91226
7916.70020 0.9117
7919.89990 0.91109
7923.10010 0.91083
7926.29980 0.9109
7929.39990 0.91032
7932.60010 0.91058
7935.79980 0.91056
7939.00000 0.91076
7942.20020 0.91079
7945.39990 0.91122
7948.60010 0.9115
7951.79980 0.91151
7955.00000 0.91155
7958.10010 0.91142
7961.29980 0.91116
7964.50000 0.91125
7967.70020 0.91058
7970.89990 0.9099
7974.10010 0.90903
7977.29980 0.90817
7980.39990 0.90644
7983.60010 0.90401
7986.79980 0.90052
7990.00000 0.89693
7993.20020 0.89199
7996.29980 0.88623
7999.50000 0.87873
8002.70020 0.86985
8005.89990 0.85951
8009.10010 0.84749
8012.20020 0.83358
8015.39990 0.81782
8018.60010 0.80036
8021.79980 0.78169
8025.00000 0.76065
8028.10010 0.73858
8031.29980 0.71444
8034.50000 0.68858
8037.70020 0.6616
8040.79980 0.63319
8044.00000 0.60409
8047.20020 0.57409
8050.39990 0.54361
8053.50000 0.5132
8056.70020 0.48303
8059.89990 0.45321
8063.10010 0.42395
8066.20020 0.39587
8069.39990 0.36845
8072.60010 0.34212
8075.70020 0.31656
8078.89990 0.29262
8082.10010 0.26985
8085.20020 0.24871
8088.39990 0.22876
8091.60010 0.21038
8094.79980 0.19347
8097.89990 0.1777
8101.10010 0.16284
8104.29980 0.14911
8107.39990 0.13667
8110.60010 0.12534
8113.70020 0.11467
8116.89990 0.10503
8120.10010 0.09617
8123.20020 0.08814
8126.39990 0.08092
8129.60010 0.07435
8132.70020 0.06822
8135.89990 0.0627
8139.10010 0.0577
8142.20020 0.05315
8145.39990 0.04887
8148.50000 0.04521
8151.70020 0.04184
8154.89990 0.0385
8158.00000 0.03554
8161.20020 0.03282
8164.29980 0.0302
8167.50000 0.02804
8170.60010 0.02603
8173.79980 0.02434
8177.00000 0.02263
8180.10010 0.02094
8183.29980 0.01907
8186.39990 0.01755
8189.60010 0.01635
8192.70020 0.01523
8195.90039 0.01428
8199.00000 0.01334
8202.20020 0.01239
8205.40039 0.01167
8208.50000 0.01085
8211.70020 0.01044
8214.79980 0.00997
8218.00000 0.00982
8221.09961 0.00929
8224.29980 0.00912
8227.40039 0.00885
8230.59961 0.0084
8233.70020 0.00803
8236.90039 0.00732
8240.00000 0.00669
8243.20020 0.00607
8246.29980 0.0052
8249.40039 0.00469
8252.59961 0.00402
8255.70020 0.00379
8258.90039 0.00317
8262.00000 0.0028
8265.20020 0.00232
8268.29980 0.00181
8271.50000 0.00161
8274.59961 0.00139
8277.70020 0.00129
8280.90039 0.00125
8284.00000 0.0011
8287.20020 0.00121
8290.29980 0.00106
8293.50000 0.00092
8296.59961 0.00067
8299.70020 0.00068
8302.90039 0.00062
8306.00000 0.00058
8309.09961 0.00047
8312.29980 0.00038
8315.40039 0.00042
8318.59961 0.00038
8321.70020 0.00013
8324.79980 4e-05
9157.27930 0.0
