# %ECSV 0.9
# ---
# datatype:
# - {name: wavelength, unit: Angstrom, datatype: float32}
# - {name: response, datatype: float32}
# meta: !!omap
# - {band_name: WB5650}
# - {group_name: IMACS}
wavelength response
4635.89990 0.0
5151.00000 0.0001
5153.00000 0.0001
5154.00000 0.0
5156.00000 0.0001
5157.00000 0.0
5158.00000 0.0
5160.00000 0.0001
5161.00000 0.0002
5163.00000 0.0001
5164.00000 0.0002
5166.00000 0.0001
5167.00000 0.0001
5168.00000 0.0001
5170.00000 0.0002
5171.00000 0.0001
5173.00000 0.0001
5174.00000 0.0001
5176.00000 0.0001
5177.00000 0.0001
5178.00000 0.0001
5180.00000 0.0001
5181.00000 0.0001
5183.00000 0.0001
5184.00000 0.0002
5185.00000 0.0002
5187.00000 0.0002
5188.00000 0.0002
5190.00000 0.0002
5191.00000 0.0001
5193.00000 0.0001
5194.00000 0.0001
5195.00000 0.0001
5197.00000 0.0001
5198.00000 0.0002
5200.00000 0.0001
5201.00000 0.0002
5202.00000 0.0002
5204.00000 0.0002
5205.00000 0.0001
5207.00000 0.0003
5208.00000 0.0003
5210.00000 0.0003
5211.00000 0.0003
5212.00000 0.0005
5214.00000 0.0004
5215.00000 0.0004
5217.00000 0.0004
5218.00000 0.0004
5219.00000 0.0004
5221.00000 0.0006
5222.00000 0.0007
5224.00000 0.0009
5225.00000 0.0009
5227.00000 0.001
5228.00000 0.001
5229.00000 0.0011
5231.00000 0.0011
5232.00000 0.0013
5234.00000 0.0015
5235.00000 0.0021
5236.00000 0.0027
5238.00000 0.0034
5239.00000 0.004
5241.00000 0.0048
5242.00000 0.0053
5243.00000 0.0061
5245.00000 0.007
5246.00000 0.0078
5248.00000 0.0082
5249.00000 0.0084
5250.00000 0.0085
5252.00000 0.0086
5253.00000 0.0086
5255.00000 0.0088
5256.00000 0.0088
5258.00000 0.0089
5259.00000 0.0089
5260.00000 0.0092
5262.00000 0.0096
5263.00000 0.0101
5265.00000 0.0112
5266.00000 0.0126
5267.00000 0.0139
5269.00000 0.0152
5270.00000 0.0165
5272.00000 0.0173
5273.00000 0.0179
5274.00000 0.0185
5276.00000 0.0192
5277.00000 0.0196
5279.00000 0.0206
5280.00000 0.0216
5281.00000 0.0232
5283.00000 0.025
5284.00000 0.027
5286.00000 0.0283
5287.00000 0.0294
5288.00000 0.0301
5290.00000 0.0311
5291.00000 0.0328
5293.00000 0.0345
5294.00000 0.0369
5295.00000 0.039
5297.00000 0.0409
5298.00000 0.0421
5300.00000 0.0438
5301.00000 0.0458
5302.00000 0.0481
5304.00000 0.0505
5305.00000 0.0527
5307.00000 0.0543
5308.00000 0.0559
5309.00000 0.0579
5311.00000 0.0603
5312.00000 0.063
5314.00000 0.0658
5315.00000 0.0685
5316.00000 0.0717
5318.00000 0.0742
5319.00000 0.0769
5321.00000 0.0794
5322.00000 0.0817
5323.00000 0.0843
5325.00000 0.0876
5326.00000 0.0906
5328.00000 0.095
5329.00000 0.0987
5330.00000 0.1024
5332.00000 0.1057
5333.00000 0.109
5335.00000 0.1117
5336.00000 0.1155
5337.00000 0.1191
5339.00000 0.1226
5340.00000 0.1263
5342.00000 0.1302
5343.00000 0.1337
5344.00000 0.1373
5346.00000 0.1409
5347.00000 0.1441
5349.00000 0.1476
5350.00000 0.1522
5351.00000 0.1562
5353.00000 0.1608
5354.00000 0.1659
5356.00000 0.1715
5357.00000 0.1757
5358.00000 0.1795
5360.00000 0.1834
5361.00000 0.188
5363.00000 0.1921
5364.00000 0.196
5365.00000 0.2004
5367.00000 0.2051
5368.00000 0.2092
5369.00000 0.2136
5371.00000 0.218
5372.00000 0.2235
5374.00000 0.2289
5375.00000 0.2343
5376.00000 0.2389
5378.00000 0.2439
5379.00000 0.2481
5381.00000 0.2534
5382.00000 0.2585
5383.00000 0.2643
5385.00000 0.2698
5386.00000 0.2751
5388.00000 0.2801
5389.00000 0.2846
5390.00000 0.289
5392.00000 0.2938
5393.00000 0.2984
5394.00000 0.3026
5396.00000 0.3078
5397.00000 0.3129
5399.00000 0.3188
5400.00000 0.3252
5401.00000 0.3297
5403.00000 0.3345
5404.00000 0.3392
5406.00000 0.3438
5407.00000 0.3486
5408.00000 0.3544
5410.00000 0.3596
5411.00000 0.3657
5412.00000 0.3696
5414.00000 0.374
5415.00000 0.3785
5417.00000 0.3837
5418.00000 0.3884
5419.00000 0.3944
5421.00000 0.3996
5422.00000 0.4049
5424.00000 0.4096
5425.00000 0.4143
5426.00000 0.4204
5428.00000 0.4255
5429.00000 0.4305
5430.00000 0.4356
5432.00000 0.4422
5433.00000 0.4473
5435.00000 0.4521
5436.00000 0.4583
5437.00000 0.4636
5439.00000 0.4675
5440.00000 0.4721
5441.00000 0.4779
5443.00000 0.4817
5444.00000 0.4872
5446.00000 0.4915
5447.00000 0.4963
5448.00000 0.5002
5450.00000 0.5052
5451.00000 0.5094
5453.00000 0.5156
5454.00000 0.5202
5455.00000 0.5251
5457.00000 0.5296
5458.00000 0.5353
5459.00000 0.5391
5461.00000 0.5445
5462.00000 0.5505
5464.00000 0.5564
5465.00000 0.5616
5466.00000 0.5676
5468.00000 0.5717
5469.00000 0.5754
5470.00000 0.5815
5472.00000 0.586
5473.00000 0.5898
5475.00000 0.5943
5476.00000 0.5987
5477.00000 0.601
5479.00000 0.6056
5480.00000 0.609
5481.00000 0.6133
5483.00000 0.6186
5484.00000 0.6244
5485.00000 0.6285
5487.00000 0.6333
5488.00000 0.639
5490.00000 0.6429
5491.00000 0.6452
5492.00000 0.6502
5494.00000 0.6559
5495.00000 0.6589
5496.00000 0.6632
5498.00000 0.6677
5499.00000 0.6692
5501.00000 0.6712
5502.00000 0.6754
5503.00000 0.6786
5505.00000 0.6832
5506.00000 0.6882
5507.00000 0.6932
5509.00000 0.6965
5510.00000 0.6995
5512.00000 0.7026
5513.00000 0.7061
5514.00000 0.7089
5516.00000 0.712
5517.00000 0.716
5518.00000 0.719
5520.00000 0.7244
5521.00000 0.7284
5522.00000 0.7323
5524.00000 0.7374
5525.00000 0.7423
5527.00000 0.7438
5528.00000 0.7468
5529.00000 0.7498
5531.00000 0.7516
5532.00000 0.753
5533.00000 0.7562
5535.00000 0.7593
5536.00000 0.7643
5537.00000 0.7665
5539.00000 0.7693
5540.00000 0.7732
5542.00000 0.7764
5543.00000 0.7791
5544.00000 0.7842
5546.00000 0.7882
5547.00000 0.7902
5548.00000 0.794
5550.00000 0.7934
5551.00000 0.7957
5552.00000 0.7983
5554.00000 0.8007
5555.00000 0.8027
5557.00000 0.8069
5558.00000 0.808
5559.00000 0.8102
5561.00000 0.8152
5562.00000 0.8202
5563.00000 0.8221
5565.00000 0.8262
5566.00000 0.8291
5567.00000 0.8259
5569.00000 0.8252
5570.00000 0.8275
5572.00000 0.8286
5573.00000 0.8296
5574.00000 0.8353
5576.00000 0.8384
5577.00000 0.8417
5578.00000 0.8457
5580.00000 0.8468
5581.00000 0.8472
5582.00000 0.8436
5584.00000 0.8442
5585.00000 0.8428
5586.00000 0.8457
5588.00000 0.8463
5589.00000 0.8538
5591.00000 0.8575
5592.00000 0.8619
5593.00000 0.8646
5595.00000 0.8659
5596.00000 0.8636
5597.00000 0.8611
5599.00000 0.8604
5600.00000 0.8606
5601.00000 0.8655
5603.00000 0.8692
5604.00000 0.871
5605.00000 0.873
5607.00000 0.8738
5608.00000 0.8744
5609.00000 0.8758
5611.00000 0.8776
5612.00000 0.878
5614.00000 0.8805
5615.00000 0.8806
5616.00000 0.8818
5618.00000 0.8842
5619.00000 0.8864
5620.00000 0.8865
5622.00000 0.8876
5623.00000 0.8871
5624.00000 0.887
5626.00000 0.8848
5627.00000 0.8844
5628.00000 0.886
5630.00000 0.8855
5631.00000 0.8875
5632.00000 0.8884
5634.00000 0.8909
5635.00000 0.8898
5636.00000 0.8918
5638.00000 0.8902
5639.00000 0.8913
5641.00000 0.8879
5642.00000 0.89
5643.00000 0.8921
5645.00000 0.8983
5646.00000 0.9016
5647.00000 0.9063
5649.00000 0.906
5650.00000 0.901
5651.00000 0.8946
5653.00000 0.8926
5654.00000 0.8915
5655.00000 0.8904
5657.00000 0.8963
5658.00000 0.9002
5659.00000 0.9063
5661.00000 0.9099
5662.00000 0.9109
5663.00000 0.9117
5665.00000 0.9145
5666.00000 0.9077
5667.00000 0.9052
5669.00000 0.9001
5670.00000 0.8953
5671.00000 0.8886
5673.00000 0.891
5674.00000 0.8926
5675.00000 0.8976
5677.00000 0.8978
5678.00000 0.9005
5679.00000 0.9026
5681.00000 0.9058
5682.00000 0.9077
5684.00000 0.9081
5685.00000 0.9028
5686.00000 0.9049
5688.00000 0.9027
5689.00000 0.9034
5690.00000 0.9045
5692.00000 0.9117
5693.00000 0.9094
5694.00000 0.9089
5696.00000 0.9058
5697.00000 0.9084
5698.00000 0.9099
5700.00000 0.9065
5988.70020 0.97994
5992.10010 0.97464
5995.60010 0.97458
5999.00000 0.97499
6002.50000 0.97501
6005.89990 0.97492
6009.29980 0.97488
6012.79980 0.97446
6016.20020 0.97418
6019.70020 0.97447
6023.10010 0.97404
6026.60010 0.97403
6030.00000 0.97426
6033.39990 0.97356
6036.89990 0.97227
6040.29980 0.9723
6043.70020 0.97217
6047.20020 0.97139
6050.60010 0.97136
6054.10010 0.972
6057.50000 0.97112
6060.89990 0.97041
6064.39990 0.97022
6067.79980 0.96943
6071.20020 0.96812
6074.70020 0.96793
6078.10010 0.96814
6081.50000 0.96794
6085.00000 0.96732
6088.39990 0.96719
6091.79980 0.96648
6095.29980 0.96541
6098.70020 0.96491
6102.10010 0.96558
6105.60010 0.96533
6109.00000 0.96558
6112.39990 0.96557
6115.79980 0.96502
6119.29980 0.96405
6122.70020 0.96326
6126.10010 0.96202
6129.60010 0.96136
6133.00000 0.9613
6136.39990 0.96157
6139.79980 0.96175
6143.29980 0.96207
6146.70020 0.96262
6150.10010 0.96247
6153.50000 0.96188
6157.00000 0.96231
6160.39990 0.96249
6163.79980 0.96137
6167.20020 0.96076
6170.60010 0.96037
6174.10010 0.95979
6177.50000 0.95981
6180.89990 0.96101
6184.29980 0.96178
6187.79980 0.9631
6191.20020 0.96414
6194.60010 0.96432
6198.00000 0.96424
6201.39990 0.96483
6204.79980 0.96437
6208.29980 0.96431
6211.70020 0.96418
6215.10010 0.96483
6218.50000 0.96498
6221.89990 0.96632
6225.29980 0.96653
6228.79980 0.96786
6232.20020 0.96784
6235.60010 0.96879
6239.00000 0.96855
6242.39990 0.96918
6245.79980 0.96969
6249.20020 0.97064
6252.60010 0.97109
6256.10010 0.97122
6259.50000 0.97136
6262.89990 0.97109
6266.29980 0.97126
6269.70020 0.97143
6273.10010 0.97322
6276.50000 0.97421
6279.89990 0.97522
6283.29980 0.97632
6286.70020 0.97684
6290.10010 0.97637
6293.50000 0.97707
6297.00000 0.97716
6300.39990 0.97707
6303.79980 0.97746
6307.20020 0.97816
6310.60010 0.97858
6314.00000 0.97999
6317.39990 0.98129
6320.79980 0.98197
6324.20020 0.98233
6327.60010 0.9822
6331.00000 0.98207
6334.39990 0.9817
6337.79980 0.98152
6341.20020 0.98209
6344.60010 0.98302
6348.00000 0.98293
6351.39990 0.98304
6354.79980 0.98344
6358.20020 0.98334
6361.60010 0.98347
6365.00000 0.98392
6368.39990 0.98387
6371.79980 0.98338
6375.20020 0.98332
6378.60010 0.98284
6382.00000 0.98291
6385.39990 0.98284
6388.70020 0.98298
6392.10010 0.98346
6395.50000 0.983
6398.89990 0.9822
6402.29980 0.98213
6405.70020 0.9819
6409.10010 0.98134
6412.50000 0.98154
6415.89990 0.98141
6419.29980 0.9811
6422.70020 0.98089
6426.10010 0.98078
6429.39990 0.98035
6432.79980 0.98068
6436.20020 0.98017
6439.60010 0.97987
6443.00000 0.97951
6446.39990 0.97938
6449.79980 0.97854
6453.20020 0.9786
6456.50000 0.97844
6459.89990 0.978
6463.29980 0.97677
6466.70020 0.97604
6470.10010 0.97539
6473.50000 0.97517
6476.79980 0.97473
6480.20020 0.97458
6483.60010 0.97488
6487.00000 0.97447
6490.39990 0.97384
6493.79980 0.97328
6497.10010 0.973
6500.50000 0.97229
6503.89990 0.97224
6507.29980 0.97206
6510.60010 0.97199
6514.00000 0.97213
6517.39990 0.972
6520.79980 0.97172
6524.20020 0.97118
6527.50000 0.97131
6530.89990 0.971
6534.29980 0.97088
6537.70020 0.97076
6541.00000 0.97036
6544.39990 0.96971
6547.79980 0.96929
6551.20020 0.96906
6554.50000 0.96918
6557.89990 0.97001
6561.29980 0.97007
6564.60010 0.9704
6568.00000 0.97088
6571.39990 0.97083
6574.79980 0.97021
6578.10010 0.9699
6581.50000 0.96982
6584.89990 0.96957
6588.20020 0.9697
6591.60010 0.96984
6595.00000 0.97
6598.29980 0.97036
6601.70020 0.97052
6605.10010 0.9701
6608.39990 0.96999
6611.79980 0.97011
6615.20020 0.97029
6618.50000 0.96999
6621.89990 0.96999
6625.29980 0.97022
6628.60010 0.97037
6632.00000 0.97008
6635.29980 0.97023
6638.70020 0.97124
6642.10010 0.9716
6645.39990 0.97179
6648.79980 0.97218
6652.10010 0.97229
6655.50000 0.97188
6658.89990 0.97199
6662.20020 0.97175
6665.60010 0.97155
6668.89990 0.97226
6672.29980 0.97213
6675.70020 0.97209
6679.00000 0.97225
6682.39990 0.9729
6685.70020 0.97265
6689.10010 0.97294
6692.39990 0.9735
6695.79980 0.97417
6699.10010 0.9739
6702.50000 0.97432
6705.89990 0.97474
6709.20020 0.97486
6712.60010 0.97531
6715.89990 0.97582
6719.29980 0.97576
6722.60010 0.97596
6726.00000 0.97593
6729.29980 0.97633
6732.70020 0.97634
6736.00000 0.9764
6739.39990 0.97605
6742.70020 0.97645
6746.10010 0.97631
6749.39990 0.97644
6752.79980 0.97654
6756.10010 0.97701
6759.39990 0.97692
6762.79980 0.97668
6766.10010 0.97663
6769.50000 0.97684
6772.79980 0.97715
6776.20020 0.97724
6779.50000 0.97709
6782.89990 0.97735
6786.20020 0.97805
6789.50000 0.97786
6792.89990 0.97806
6796.20020 0.97861
6799.60010 0.97866
6802.89990 0.97843
6806.20020 0.97843
6809.60010 0.97803
6812.89990 0.97771
6816.29980 0.97728
6819.60010 0.97646
6822.89990 0.97632
6826.29980 0.97669
6829.60010 0.9767
6833.00000 0.97695
6836.29980 0.97745
6839.60010 0.97792
6843.00000 0.97811
6846.29980 0.97807
6849.60010 0.97805
6853.00000 0.97812
6856.29980 0.97789
6859.60010 0.97771
6863.00000 0.97813
6866.29980 0.9782
6869.60010 0.97796
6873.00000 0.97769
6876.29980 0.97713
6879.60010 0.97659
6883.00000 0.97601
6886.29980 0.97576
6889.60010 0.97576
6892.89990 0.97631
6896.29980 0.97638
6899.60010 0.97658
6902.89990 0.97616
6906.20020 0.97582
6909.60010 0.97533
6912.89990 0.97497
6916.20020 0.97492
6919.60010 0.97543
6922.89990 0.97571
6926.20020 0.97554
6929.50000 0.97563
6932.89990 0.9754
6936.20020 0.97479
6939.50000 0.97417
6942.79980 0.97403
6946.10010 0.97368
6949.50000 0.97371
6952.79980 0.97427
6956.10010 0.97489
6959.39990 0.97519
6962.70020 0.97494
6966.10010 0.97458
6969.39990 0.97395
6972.70020 0.97431
6976.00000 0.97443
6979.29980 0.97454
6982.70020 0.97466
6986.00000 0.97471
6989.29980 0.97366
6992.60010 0.97303
6995.89990 0.97305
6999.20020 0.97241
7002.50000 0.97264
7005.89990 0.97322
7009.20020 0.97322
7012.50000 0.97331
7015.79980 0.97375
7019.10010 0.97324
7022.39990 0.97229
7025.70020 0.97172
7029.00000 0.97152
7032.39990 0.97111
7035.70020 0.97101
7039.00000 0.97113
7042.29980 0.97127
7045.60010 0.97133
7048.89990 0.97151
7052.20020 0.97115
7055.50000 0.97083
7058.79980 0.97082
7062.10010 0.97019
7065.39990 0.96986
7068.70020 0.97003
7072.00000 0.97015
7075.39990 0.96967
7078.70020 0.96919
7082.00000 0.96887
7085.29980 0.96848
7088.60010 0.96823
7091.89990 0.96808
7095.20020 0.96817
7098.50000 0.96809
7101.79980 0.96802
7105.10010 0.96764
7108.39990 0.96735
7111.70020 0.96753
7115.00000 0.9672
7118.29980 0.96701
7121.60010 0.96659
7124.89990 0.96642
7128.20020 0.96574
7131.50000 0.96592
7134.79980 0.966
7138.10010 0.96605
7141.39990 0.9665
7144.70020 0.96623
7148.00000 0.96591
7151.20020 0.96508
7154.50000 0.96499
7157.79980 0.96441
7161.10010 0.96483
7164.39990 0.96436
7167.70020 0.96472
7171.00000 0.9645
7174.29980 0.96426
7177.60010 0.96348
7180.89990 0.96382
7184.20020 0.96377
7187.50000 0.96364
7190.79980 0.96385
7194.00000 0.96392
7197.29980 0.96339
7200.60010 0.9631
7203.89990 0.96281
7207.20020 0.96166
7210.50000 0.96182
7213.79980 0.96202
7217.10010 0.96146
7220.29980 0.96128
7223.60010 0.96176
7226.89990 0.96159
7230.20020 0.96134
7233.50000 0.96128
7236.79980 0.96117
7240.00000 0.96074
7243.29980 0.9603
7246.60010 0.96003
7249.89990 0.96012
7253.20020 0.95983
7256.50000 0.96008
7259.70020 0.95978
7263.00000 0.95975
7266.29980 0.95982
7269.60010 0.96006
7272.89990 0.95998
7276.10010 0.96069
7279.39990 0.96103
7282.70020 0.96062
7286.00000 0.96048
7289.20020 0.96095
7292.50000 0.96057
7295.79980 0.96012
7299.10010 0.96057
7302.29980 0.96055
7305.60010 0.96013
7308.89990 0.96009
7312.20020 0.96003
7315.39990 0.95984
7318.70020 0.95994
7322.00000 0.9602
7325.29980 0.96027
7328.50000 0.96031
7331.79980 0.96067
7335.10010 0.96083
7338.29980 0.96072
7341.60010 0.96095
7344.89990 0.96162
7348.10010 0.96194
7351.39990 0.96217
7354.70020 0.9627
7357.89990 0.96283
7361.20020 0.96312
7364.50000 0.96258
7367.70020 0.96284
7371.00000 0.96238
7374.29980 0.96276
7377.50000 0.96292
7380.79980 0.96358
7384.10010 0.96372
7387.29980 0.96395
7390.60010 0.96361
7393.89990 0.96317
7397.10010 0.96357
7400.39990 0.96346
7403.60010 0.96394
7406.89990 0.96441
7410.20020 0.96467
7413.39990 0.96425
7416.70020 0.96415
7419.89990 0.9642
7423.20020 0.96437
7426.50000 0.96439
7429.70020 0.96441
7433.00000 0.96492
7436.20020 0.9654
7439.50000 0.96482
7442.79980 0.96464
7446.00000 0.96509
7449.29980 0.96514
7452.50000 0.96453
7455.79980 0.96483
7459.00000 0.96511
7462.29980 0.96474
7465.50000 0.96425
7468.79980 0.96431
7472.00000 0.96452
7475.29980 0.96468
7478.50000 0.9645
7481.79980 0.96473
7485.00000 0.96403
7488.29980 0.96335
7491.50000 0.96235
7494.79980 0.96253
7498.00000 0.96248
7501.29980 0.96297
7504.50000 0.96308
7507.79980 0.9638
7511.00000 0.96314
7514.29980 0.96295
7517.50000 0.96286
7520.79980 0.96254
7524.00000 0.96158
7527.29980 0.96128
7530.50000 0.9608
7533.70020 0.96032
7537.00000 0.96022
7540.20020 0.96016
7543.50000 0.96053
7546.70020 0.96056
7550.00000 0.96058
7553.20020 0.96054
7556.39990 0.95992
7559.70020 0.95916
7562.89990 0.95854
7566.20020 0.95764
7569.39990 0.95657
7572.60010 0.95615
7575.89990 0.95527
7579.10010 0.95466
7582.39990 0.95407
7585.60010 0.95355
7588.79980 0.953
7592.10010 0.95261
7595.29980 0.95187
7598.50000 0.95156
7601.79980 0.95092
7605.00000 0.9506
7608.20020 0.95035
7611.50000 0.95032
7614.70020 0.94927
7617.89990 0.94898
7621.20020 0.94838
7624.39990 0.94778
7627.60010 0.94707
7630.89990 0.94689
7634.10010 0.94633
7637.29980 0.94562
7640.60010 0.94536
7643.79980 0.94424
7647.00000 0.94336
7650.20020 0.94321
7653.50000 0.94262
7656.70020 0.94195
7659.89990 0.94155
7663.20020 0.94074
7666.39990 0.93925
7669.60010 0.93889
7672.79980 0.93854
7676.10010 0.93831
7679.29980 0.9382
7682.50000 0.93783
7685.70020 0.93689
7689.00000 0.93555
7692.20020 0.9347
7695.39990 0.9337
7698.60010 0.93358
7701.79980 0.93362
7705.10010 0.93385
7708.29980 0.93315
7711.50000 0.93301
7714.70020 0.93244
7717.89990 0.93177
7721.20020 0.93067
7724.39990 0.93015
7727.60010 0.92975
7730.79980 0.92917
7734.00000 0.92859
7737.20020 0.92839
7740.50000 0.92833
7743.70020 0.92812
7746.89990 0.92759
7750.10010 0.9272
7753.29980 0.92674
7756.50000 0.92671
7759.70020 0.92636
7763.00000 0.92634
7766.20020 0.92668
7769.39990 0.92626
7772.60010 0.92626
7775.79980 0.92641
7779.00000 0.92636
7782.20020 0.92598
7785.39990 0.92656
7788.70020 0.92641
7791.89990 0.92563
7795.10010 0.92572
7798.29980 0.92588
7801.50000 0.92554
7804.70020 0.92539
7807.89990 0.92616
7811.10010 0.92663
7814.29980 0.92699
7817.50000 0.92705
7820.70020 0.9274
7823.89990 0.92731
7827.10010 0.92726
7830.29980 0.92744
7833.50000 0.92748
7836.70020 0.92747
7839.89990 0.92804
7843.10010 0.92782
7846.39990 0.92797
7849.60010 0.92848
7852.79980 0.92846
7856.00000 0.92851
7859.20020 0.92909
7862.39990 0.92915
7865.60010 0.92938
7868.79980 0.93033
7871.89990 0.93039
7875.10010 0.93079
7878.29980 0.93153
7881.50000 0.93247
7884.70020 0.93276
7887.89990 0.93394
7891.10010 0.93457
7894.29980 0.93488
7897.50000 0.93494
7900.70020 0.93514
7903.89990 0.93505
7907.10010 0.93542
7910.29980 0.93584
7913.50000 0.93657
7916.70020 0.93718
7919.89990 0.93814
7923.10010 0.93911
7926.29980 0.93962
7929.39990 0.93946
7932.60010 0.93959
7935.79980 0.94003
7939.00000 0.94058
7942.20020 0.94126
7945.39990 0.94255
7948.60010 0.94333
7951.79980 0.94384
7955.00000 0.94372
7958.10010 0.94429
7961.29980 0.94469
7964.50000 0.94515
7967.70020 0.9455
7970.89990 0.94566
7974.10010 0.94581
7977.29980 0.94625
7980.39990 0.94722
7983.60010 0.94735
7986.79980 0.94781
7990.00000 0.94791
7993.20020 0.94816
7996.29980 0.94781
7999.50000 0.94849
8002.70020 0.94905
8005.89990 0.94968
8009.10010 0.94968
8012.20020 0.95039
8015.39990 0.95077
8018.60010 0.95169
8021.79980 0.95226
8025.00000 0.95349
8028.10010 0.95373
8031.29980 0.95366
8034.50000 0.95283
8037.70020 0.95308
8040.79980 0.95301
8044.00000 0.95338
8047.20020 0.95411
8050.39990 0.95466
8053.50000 0.95461
8056.70020 0.95427
8059.89990 0.95428
8063.10010 0.95435
8066.20020 0.95535
8069.39990 0.95602
8072.60010 0.95623
8075.70020 0.95596
8078.89990 0.95561
8082.10010 0.95526
8085.20020 0.95459
8088.39990 0.95436
8091.60010 0.95463
8094.79980 0.95466
8097.89990 0.95374
8101.10010 0.95312
8104.29980 0.95288
8107.39990 0.95297
8110.60010 0.95223
8113.70020 0.95257
8116.89990 0.95258
8120.10010 0.95168
8123.20020 0.95082
8126.39990 0.95094
8129.60010 0.95046
8132.70020 0.95066
8135.89990 0.95087
8139.10010 0.95035
8142.20020 0.95013
8145.39990 0.94962
8148.50000 0.9488
8151.70020 0.94797
8154.89990 0.94814
8158.00000 0.94775
8161.20020 0.94717
8164.29980 0.94717
8167.50000 0.94749
8170.60010 0.94672
8173.79980 0.94618
8177.00000 0.9459
8180.10010 0.94513
8183.29980 0.94479
8186.39990 0.94441
8189.60010 0.94432
8192.70020 0.94344
8195.90039 0.94262
8199.00000 0.9415
8202.20020 0.94068
8205.40039 0.93932
8208.50000 0.93931
8211.70020 0.93862
8214.79980 0.93851
8218.00000 0.93837
8221.09961 0.938
8224.29980 0.93688
8227.40039 0.93726
8230.59961 0.9364
8233.70020 0.93535
8236.90039 0.9348
8240.00000 0.93459
8243.20020 0.93318
8246.29980 0.93203
8249.40039 0.93113
8252.59961 0.93054
8255.70020 0.92954
8258.90039 0.92938
8262.00000 0.92888
8265.20020 0.92888
8268.29980 0.92776
8271.50000 0.92685
8274.59961 0.92641
8277.70020 0.92675
8280.90039 0.92637
8284.00000 0.92653
8287.20020 0.92735
8290.29980 0.92736
8293.50000 0.92718
8296.59961 0.92696
8299.70020 0.92675
8302.90039 0.9259
8306.00000 0.92543
8309.09961 0.925
8312.29980 0.92437
8315.40039 0.92437
8318.59961 0.92484
8321.70020 0.9248
8324.79980 0.92503
8328.00000 0.92581
8331.09961 0.9255
8334.20020 0.9253
8337.40039 0.92517
8340.50000 0.92509
8343.59961 0.9251
8346.79980 0.92534
8349.90039 0.92511
8353.00000 0.92452
8356.20020 0.92477
8359.29980 0.92395
8362.40039 0.92415
8365.59961 0.92483
8368.70020 0.92563
8371.79980 0.92507
8374.90039 0.92583
8378.09961 0.92607
8381.20020 0.9265
8384.29980 0.92671
8387.50000 0.92724
8390.59961 0.92764
8393.70020 0.92729
8396.79980 0.92731
8400.00000 0.92792
8403.09961 0.92887
8406.20020 0.92956
8409.29980 0.9305
8412.50000 0.93079
8415.59961 0.93064
8418.70020 0.93039
8421.79980 0.93051
8425.00000 0.93149
8428.09961 0.93267
8431.20020 0.93356
8434.29980 0.93483
8437.40039 0.93575
8440.59961 0.93611
8443.70020 0.93648
8446.79980 0.93649
8449.90039 0.93673
8453.00000 0.93679
8456.20020 0.93729
8459.29980 0.93736
8462.40039 0.93798
8465.50000 0.93838
8468.59961 0.93954
8471.70020 0.94032
8474.90039 0.94085
8478.00000 0.94232
8481.09961 0.94316
8484.20020 0.94335
8487.29980 0.94373
8490.40039 0.94435
8493.50000 0.94447
8496.59961 0.94501
8499.79980 0.94579
8502.90039 0.94644
8506.00000 0.94707
8509.09961 0.94763
8512.20020 0.94833
8515.29980 0.94831
8518.40039 0.94936
8521.50000 0.94989
8524.59961 0.95115
8527.70020 0.95126
8530.90039 0.95228
8534.00000 0.95217
8537.09961 0.95307
8540.20020 0.95262
8543.29980 0.95307
8546.40039 0.95347
8549.50000 0.95349
8552.59961 0.95388
8555.70020 0.95429
8558.79980 0.9546
8561.90039 0.95421
8565.00000 0.95431
8568.09961 0.95425
8571.20020 0.95459
8574.29980 0.95509
8577.40039 0.95603
8580.50000 0.95703
8583.59961 0.95756
8586.70020 0.958
8589.79980 0.95863
8592.90039 0.95838
8596.00000 0.95834
8599.09961 0.9579
8602.20020 0.95726
8605.29980 0.95677
8608.40039 0.95718
8611.50000 0.95688
8614.59961 0.95657
8617.70020 0.95661
8620.79980 0.95647
8623.90039 0.9559
8627.00000 0.95578
8630.09961 0.95593
8633.20020 0.95593
8636.20020 0.95539
8639.29980 0.95514
8642.40039 0.95405
8645.50000 0.95313
8648.59961 0.95247
8651.70020 0.95225
8654.79980 0.95056
8657.90039 0.95056
8661.00000 0.95007
8664.09961 0.94936
8667.09961 0.94868
8670.20020 0.94897
8673.29980 0.94869
8676.40039 0.94804
8679.50000 0.94756
8682.59961 0.94644
8685.70020 0.94583
8688.79980 0.94472
8691.79980 0.94434
8694.90039 0.94335
8698.00000 0.94288
8701.09961 0.94241
8704.20020 0.94229
8707.29980 0.94073
8710.29980 0.94097
8713.40039 0.94006
8716.50000 0.93852
8719.59961 0.9369
8722.70020 0.93678
8725.70020 0.93598
8728.79980 0.93513
8731.90039 0.93483
8735.00000 0.93455
8738.09961 0.93291
8741.09961 0.93135
8744.20020 0.93115
8747.29980 0.93043
8750.40039 0.92895
8753.40039 0.92919
8756.50000 0.92815
8759.59961 0.92653
8762.70020 0.92568
8765.70020 0.92545
8768.79980 0.92448
8771.90039 0.92408
8775.00000 0.92368
8778.00000 0.92384
8781.09961 0.92352
8784.20020 0.92312
8787.29980 0.92382
8790.29980 0.92326
8793.40039 0.92171
8796.50000 0.92058
8799.50000 0.91974
8802.59961 0.91856
8805.70020 0.91826
8808.70020 0.91774
8811.79980 0.91775
8814.90039 0.91821
8817.90039 0.91763
8821.00000 0.917
8824.09961 0.91733
8827.09961 0.91754
8830.20020 0.91691
8833.29980 0.91605
8836.29980 0.91592
8839.40039 0.91577
8842.50000 0.91511
8845.50000 0.9147
8848.59961 0.91487
8851.59961 0.91522
8854.70020 0.91448
8857.79980 0.91411
8860.79980 0.91341
8863.90039 0.91332
8867.00000 0.91265
8870.00000 0.91239
8873.09961 0.91184
8876.09961 0.91177
8879.20020 0.91197
8882.20020 0.91203
8885.29980 0.91239
8888.40039 0.9124
8891.40039 0.91234
8894.50000 0.91158
8897.50000 0.91181
8900.59961 0.9116
8903.59961 0.91196
8906.70020 0.91259
8909.70020 0.91169
8912.79980 0.91037
8915.90039 0.90987
8918.90039 0.90863
8922.00000 0.90808
8925.00000 0.90749
8928.09961 0.90693
8931.09961 0.90499
8934.20020 0.90434
8937.20020 0.90185
8940.29980 0.90138
8943.29980 0.89945
8946.40039 0.89846
8949.40039 0.89575
8952.50000 0.89432
8955.50000 0.89105
8958.50000 0.88951
8961.59961 0.88669
8964.59961 0.88452
8967.70020 0.8815
8970.70020 0.88031
8973.79980 0.87767
8976.79980 0.87444
8979.90039 0.87115
8982.90039 0.86726
8986.00000 0.86246
8989.00000 0.8586
8992.00000 0.85515
8995.09961 0.85129
8998.09961 0.84665
9001.20020 0.84217
9004.20020 0.836
9007.20020 0.83024
9010.29980 0.82366
9013.29980 0.81832
9016.40039 0.81232
9019.40039 0.80635
9022.40039 0.80014
9025.50000 0.79332
9028.50000 0.7863
9031.50000 0.77781
9034.59961 0.76987
9037.59961 0.76106
9040.70020 0.75386
9043.70020 0.74569
9046.70020 0.73843
9049.79980 0.73023
9052.79980 0.72139
9055.79980 0.71166
9058.90039 0.70224
9061.90039 0.69183
9064.90039 0.68177
9067.90039 0.67175
9071.00000 0.66176
9074.00000 0.65113
9077.00000 0.6417
9080.09961 0.63192
9083.09961 0.62182
9086.09961 0.61181
9089.20020 0.60155
9092.20020 0.5907
9095.20020 0.57929
9098.20020 0.56863
9101.29980 0.55723
9104.29980 0.54686
9107.29980 0.5362
9110.29980 0.52634
9113.40039 0.51538
9116.40039 0.50491
9119.40039 0.49368
9122.40039 0.48308
9125.50000 0.47314
9128.50000 0.46364
9131.50000 0.45431
9134.50000 0.4445
9137.50000 0.43405
9140.59961 0.42395
9143.59961 0.4136
9146.59961 0.40363
9149.59961 0.39399
9152.59961 0.38485
9155.70020 0.37551
9158.70020 0.36711
9161.70020 0.35815
9164.70020 0.34996
9167.70020 0.34136
9170.79980 0.33273
9173.79980 0.32321
9176.79980 0.31514
9179.79980 0.3076
9182.79980 0.29987
9185.79980 0.29227
9188.79980 0.28539
9191.90039 0.2782
9194.90039 0.27064
9197.90039 0.26431
9200.90039 0.25826
9203.90039 0.25194
9206.90039 0.24557
9209.90039 0.23938
9212.90039 0.2329
9215.90039 0.22631
9219.00000 0.22053
9222.00000 0.21467
9225.00000 0.20916
9228.00000 0.20347
9231.00000 0.1986
9234.00000 0.19358
9237.00000 0.18909
9240.00000 0.18459
9243.00000 0.17995
9246.00000 0.17509
9249.00000 0.17075
9252.00000 0.16561
9255.00000 0.16112
9258.00000 0.15688
9261.00000 0.15322
9264.00000 0.14866
9267.09961 0.14553
9270.09961 0.14246
9273.09961 0.1395
9276.09961 0.13485
9279.09961 0.13198
9282.09961 0.12876
9285.09961 0.12503
9288.09961 0.1216
9291.09961 0.11976
9294.09961 0.11692
9297.09961 0.11372
9300.00000 0.11091
9303.00000 0.10855
9306.00000 0.10661
9309.00000 0.10441
9312.00000 0.10278
9315.00000 0.10073
9318.00000 0.09843
9321.00000 0.09599
9324.00000 0.09294
9327.00000 0.08995
9330.00000 0.08779
9333.00000 0.08678
9336.00000 0.08497
9339.00000 0.08342
9342.00000 0.08106
9345.00000 0.07946
9348.00000 0.07706
9350.90039 0.07482
9353.90039 0.07261
9356.90039 0.07115
9359.90039 0.06947
9362.90039 0.06843
9365.90039 0.06743
9368.90039 0.06674
9371.90039 0.06582
9374.90039 0.06402
9377.79980 0.06108
9380.79980 0.05952
9383.79980 0.05926
9386.79980 0.06074
9389.79980 0.06127
9392.79980 0.06023
9395.70020 0.0569
9398.70020 0.05505
9401.70020 0.05085
9404.70020 0.04631
9407.70020 0.04485
9410.70020 0.04496
9413.59961 0.04366
9416.59961 0.0431
9419.59961 0.04346
9422.59961 0.04365
9425.59961 0.04477
9428.50000 0.04467
9431.50000 0.04434
9434.50000 0.04476
9437.50000 0.04487
9440.50000 0.04369
9443.40039 0.04326
9446.40039 0.04405
9449.40039 0.04307
9452.40039 0.04257
9455.29980 0.04198
9458.29980 0.04135
9461.29980 0.03999
9464.29980 0.04021
9467.20020 0.03922
9470.20020 0.03928
9473.20020 0.0389
9476.09961 0.03807
9479.09961 0.03713
9482.09961 0.03698
9485.09961 0.03588
9488.00000 0.03592
9491.00000 0.03655
9494.00000 0.03632
9496.90039 0.03493
9499.90039 0.03413
9502.90039 0.03295
9505.79980 0.03165
9508.79980 0.03088
9511.79980 0.03088
9514.70020 0.03026
9517.70020 0.03033
9520.70020 0.02996
9523.59961 0.02971
9526.59961 0.02882
9529.59961 0.02915
9532.50000 0.02829
9535.50000 0.02838
9538.50000 0.0279
9541.40039 0.02824
9544.40039 0.02744
9547.29980 0.02728
9550.29980 0.0268
9553.29980 0.02663
9556.20020 0.02565
9559.20020 0.02549
9562.09961 0.02504
9565.09961 0.02472
9568.09961 0.02407
9571.00000 0.02354
9574.00000 0.02233
9576.90039 0.02164
9579.90039 0.02083
9582.90039 0.02062
9585.79980 0.0203
9588.79980 0.02052
9591.70020 0.02089
9594.70020 0.02046
9597.59961 0.01972
9600.59961 0.01996
9603.50000 0.02033
9606.50000 0.01929
9609.40039 0.01947
9612.40039 0.01995
9615.29980 0.01971
9618.29980 0.01911
9621.20020 0.01927
9624.20020 0.01932
9627.09961 0.01829
9630.09961 0.01793
9633.00000 0.01772
9636.00000 0.01744
9638.90039 0.01666
9641.90039 0.01735
9644.79980 0.0174
9647.79980 0.01707
9650.70020 0.01663
9653.70020 0.01647
9656.59961 0.01549
9659.59961 0.01477
9662.50000 0.01424
9665.50000 0.01374
9668.40039 0.0122
9671.29980 0.01152
9674.29980 0.0112
9677.20020 0.01112
9680.20020 0.01118
9683.09961 0.0109
9686.09961 0.01076
9689.00000 0.01168
9691.90039 0.01212
9694.90039 0.01129
9697.79980 0.01258
9700.79980 0.01252
9703.70020 0.01197
9706.59961 0.01012
9709.59961 0.01098
9712.50000 0.01029
9715.40039 0.01035
9718.40039 0.00989
9721.29980 0.01053
9724.29980 0.01006
9727.20020 0.00956
9730.09961 0.00913
9733.09961 0.00864
9736.00000 0.009
9738.90039 0.00729
9741.90039 0.00681
9744.79980 0.00587
9747.70020 0.0054
9750.70020 0.00386
9753.59961 0.00541
9756.50000 0.00567
9759.40039 0.00602
9762.40039 0.0055
9765.29980 0.00546
9768.20020 0.00514
9771.20020 0.00429
9774.09961 0.00458
9777.00000 0.00453
9779.90039 0.0046
9782.90039 0.00434
9785.79980 0.00463
9788.70020 0.00416
9791.59961 0.00423
9794.59961 0.00438
9797.50000 0.00405
9800.40039 0.00419
9803.29980 0.0047
9806.29980 0.00486
9809.20020 0.00409
9812.09961 0.00318
9815.00000 0.00327
9818.00000 0.00234
9820.90039 0.00199
9823.79980 0.00281
9826.70020 0.00289
9829.59961 0.00261
9832.59961 0.00247
9835.50000 0.00285
9838.40039 0.00204
9841.29980 0.00242
9844.20020 0.00296
9847.20020 0.0038
9850.09961 0.00367
9853.00000 0.00452
9855.90039 0.00463
9858.79980 0.00365
9861.70020 0.00281
9864.59961 0.00228
9867.59961 0.00166
9870.50000 0.00159
9873.40039 0.00191
9876.29980 0.00232
9879.20020 0.00241
9882.09961 0.00307
9885.00000 0.00269
9887.90039 0.00262
9890.90039 0.00272
9893.79980 0.00338
9896.70020 0.00225
9899.59961 0.00267
9902.50000 0.00252
9905.40039 0.00221
9908.29980 0.00205
9911.20020 0.00224
9914.09961 0.00182
9917.00000 0.00201
9919.90039 0.0021
9922.79980 0.00151
9925.79980 0.00186
9928.70020 0.00205
9931.59961 0.00162
9934.50000 0.00154
9937.40039 0.00191
9940.29980 0.0021
9943.20020 0.00193
9946.09961 0.00239
9949.00000 0.00223
9951.90039 0.0027
9954.79980 0.00308
9957.70020 0.00386
9960.59961 0.00314
9963.50000 0.00363
9966.40039 0.00318
9969.29980 0.00311
9972.20020 0.00264
9975.09961 0.00314
9978.00000 0.00297
9980.90039 0.00289
9983.79980 0.00211
9986.70020 0.00173
9989.59961 0.00124
9992.50000 0.00145
9995.40039 0.00095
9998.29980 0.00178
10998.12988 0.0
