# %ECSV 0.9
# ---
# datatype:
# - {name: wavelength, unit: Angstrom, datatype: float32}
# - {name: response, datatype: float32}
# meta: !!omap
# - {band_name: GG495}
# - {group_name: IMACS}
wavelength response
4356.00000 0.0
4840.00000 0.0003
4842.00000 0.0009
4843.00000 0.0017
4845.00000 0.0024
4846.00000 0.0031
4847.00000 0.0037
4849.00000 0.0045
4850.00000 0.0055
4852.00000 0.0063
4853.00000 0.0073
4855.00000 0.0083
4856.00000 0.0094
4858.00000 0.0104
4859.00000 0.0115
4861.00000 0.0127
4862.00000 0.0143
4864.00000 0.0155
4865.00000 0.0169
4867.00000 0.0185
4868.00000 0.0203
4869.00000 0.0222
4871.00000 0.0243
4872.00000 0.0265
4874.00000 0.0288
4875.00000 0.0313
4877.00000 0.0336
4878.00000 0.0364
4880.00000 0.0391
4881.00000 0.0421
4883.00000 0.0452
4884.00000 0.0484
4886.00000 0.0517
4887.00000 0.0552
4889.00000 0.0586
4890.00000 0.0627
4891.00000 0.0671
4893.00000 0.0715
4894.00000 0.0758
4896.00000 0.0807
4897.00000 0.0853
4899.00000 0.09
4900.00000 0.095
4902.00000 0.1004
4903.00000 0.1059
4905.00000 0.1116
4906.00000 0.1175
4908.00000 0.1238
4909.00000 0.1297
4910.00000 0.1358
4912.00000 0.1418
4913.00000 0.1479
4915.00000 0.1544
4916.00000 0.1612
4918.00000 0.1681
4919.00000 0.1753
4921.00000 0.1828
4922.00000 0.1899
4924.00000 0.1974
4925.00000 0.205
4927.00000 0.2127
4928.00000 0.2204
4929.00000 0.2286
4931.00000 0.2365
4932.00000 0.2447
4934.00000 0.2529
4935.00000 0.2613
4937.00000 0.2697
4938.00000 0.2784
4940.00000 0.2872
4941.00000 0.296
4943.00000 0.3044
4944.00000 0.3131
4945.00000 0.3214
4947.00000 0.3293
4948.00000 0.3381
4950.00000 0.3468
4951.00000 0.3553
4953.00000 0.364
4954.00000 0.3729
4956.00000 0.3813
4957.00000 0.3902
4959.00000 0.399
4960.00000 0.4074
4961.00000 0.4167
4963.00000 0.4249
4964.00000 0.4335
4966.00000 0.4418
4967.00000 0.4504
4969.00000 0.4588
4970.00000 0.4676
4972.00000 0.4759
4973.00000 0.4847
4975.00000 0.4934
4976.00000 0.5013
4977.00000 0.5089
4979.00000 0.5168
4980.00000 0.5246
4982.00000 0.532
4983.00000 0.5398
4985.00000 0.5474
4986.00000 0.5547
4988.00000 0.5621
4989.00000 0.5696
4990.00000 0.5766
4992.00000 0.584
4993.00000 0.591
4995.00000 0.5975
4996.00000 0.6047
4998.00000 0.6113
4999.00000 0.6176
5001.00000 0.6245
5002.00000 0.6312
5003.00000 0.6371
5005.00000 0.6436
5006.00000 0.6502
5008.00000 0.6559
5009.00000 0.6621
5011.00000 0.6678
5012.00000 0.6733
5014.00000 0.6792
5015.00000 0.6853
5017.00000 0.6906
5018.00000 0.6959
5019.00000 0.7013
5021.00000 0.7063
5022.00000 0.7114
5024.00000 0.7166
5025.00000 0.7218
5027.00000 0.7271
5028.00000 0.7318
5029.00000 0.7364
5031.00000 0.7408
5032.00000 0.7452
5034.00000 0.749
5035.00000 0.7535
5037.00000 0.758
5038.00000 0.7623
5040.00000 0.7669
5041.00000 0.7713
5042.00000 0.775
5044.00000 0.7784
5045.00000 0.7822
5047.00000 0.7862
5048.00000 0.7904
5050.00000 0.794
5051.00000 0.7981
5053.00000 0.8014
5054.00000 0.8046
5055.00000 0.8075
5057.00000 0.8105
5058.00000 0.8136
5060.00000 0.8166
5061.00000 0.82
5063.00000 0.8228
5064.00000 0.8258
5065.00000 0.8287
5067.00000 0.8315
5068.00000 0.8342
5070.00000 0.8374
5071.00000 0.8404
5073.00000 0.843
5074.00000 0.8453
5076.00000 0.8479
5077.00000 0.8499
5078.00000 0.8526
5080.00000 0.8553
5081.00000 0.8576
5083.00000 0.8593
5084.00000 0.8624
5086.00000 0.8648
5087.00000 0.8664
5088.00000 0.8687
5090.00000 0.871
5091.00000 0.8725
5093.00000 0.8736
5094.00000 0.8754
5096.00000 0.8769
5097.00000 0.8788
5098.00000 0.8805
5100.00000 0.8823
5101.00000 0.8845
5103.00000 0.8864
5104.00000 0.8879
5106.00000 0.8895
5107.00000 0.8909
5109.00000 0.892
5110.00000 0.8938
5111.00000 0.8951
5113.00000 0.8968
5114.00000 0.8986
5116.00000 0.9004
5117.00000 0.9021
5119.00000 0.9041
5120.00000 0.9051
5121.00000 0.9057
5123.00000 0.9074
5124.00000 0.9083
5126.00000 0.9089
5127.00000 0.9101
5129.00000 0.9117
5130.00000 0.9126
5131.00000 0.9132
5133.00000 0.9143
5134.00000 0.9156
5136.00000 0.9164
5137.00000 0.917
5139.00000 0.9188
5140.00000 0.92
5141.00000 0.9201
5143.00000 0.921
5144.00000 0.922
5146.00000 0.9227
5147.00000 0.9232
5148.00000 0.925
5150.00000 0.9262
5151.00000 0.927
5153.00000 0.9271
5154.00000 0.9283
5156.00000 0.9291
5157.00000 0.9293
5158.00000 0.93
5160.00000 0.9315
5161.00000 0.9312
5163.00000 0.9316
5164.00000 0.9327
5166.00000 0.9338
5167.00000 0.934
5168.00000 0.9356
5170.00000 0.9366
5171.00000 0.9376
5173.00000 0.9382
5174.00000 0.9388
5176.00000 0.9394
5177.00000 0.9398
5178.00000 0.9402
5180.00000 0.941
5181.00000 0.9417
5183.00000 0.9423
5184.00000 0.9433
5185.00000 0.9435
5187.00000 0.9436
5188.00000 0.9443
5190.00000 0.9447
5191.00000 0.9449
5193.00000 0.9456
5194.00000 0.9466
5195.00000 0.9472
5197.00000 0.948
5198.00000 0.9483
5200.00000 0.9481
5201.00000 0.9482
5202.00000 0.9483
5204.00000 0.9487
5205.00000 0.9495
5207.00000 0.9502
5208.00000 0.9505
5210.00000 0.9514
5211.00000 0.9517
5212.00000 0.952
5214.00000 0.9524
5215.00000 0.9528
5217.00000 0.9528
5218.00000 0.9531
5219.00000 0.9532
5221.00000 0.9538
5222.00000 0.9543
5224.00000 0.9546
5225.00000 0.9555
5227.00000 0.9558
5228.00000 0.9563
5229.00000 0.9565
5231.00000 0.9562
5232.00000 0.956
5234.00000 0.9562
5235.00000 0.9561
5236.00000 0.9566
5238.00000 0.9573
5239.00000 0.9572
5241.00000 0.9582
5242.00000 0.9583
5243.00000 0.9591
5245.00000 0.96
5246.00000 0.9614
5248.00000 0.962
5249.00000 0.9635
5250.00000 0.9629
5252.00000 0.9632
5253.00000 0.963
5255.00000 0.9625
5256.00000 0.962
5258.00000 0.963
5259.00000 0.9623
5260.00000 0.9619
5262.00000 0.962
5263.00000 0.9611
5265.00000 0.9608
5266.00000 0.9614
5267.00000 0.9625
5269.00000 0.9623
5270.00000 0.9635
5272.00000 0.9641
5273.00000 0.9645
5274.00000 0.9649
5276.00000 0.9654
5277.00000 0.9661
5279.00000 0.9665
5280.00000 0.9665
5281.00000 0.9666
5283.00000 0.9673
5284.00000 0.9682
5286.00000 0.9691
5287.00000 0.9687
5288.00000 0.9681
5290.00000 0.968
5291.00000 0.9674
5293.00000 0.9665
5294.00000 0.9675
5295.00000 0.968
5297.00000 0.9678
5298.00000 0.9675
5300.00000 0.9672
5301.00000 0.9676
5302.00000 0.9683
5304.00000 0.9692
5305.00000 0.9707
5307.00000 0.9702
5308.00000 0.9697
5309.00000 0.9696
5311.00000 0.9691
5312.00000 0.9671
5314.00000 0.968
5315.00000 0.9683
5316.00000 0.9685
5318.00000 0.9687
5319.00000 0.9705
5321.00000 0.9717
5322.00000 0.971
5323.00000 0.9712
5325.00000 0.9716
5326.00000 0.9707
5328.00000 0.9699
5329.00000 0.9711
5330.00000 0.9702
5332.00000 0.9698
5333.00000 0.97
5335.00000 0.9695
5336.00000 0.9695
5337.00000 0.9693
5339.00000 0.969
5340.00000 0.9682
5342.00000 0.9687
5343.00000 0.9686
5344.00000 0.9697
5346.00000 0.9706
5347.00000 0.9709
5349.00000 0.9717
5350.00000 0.9728
5351.00000 0.9724
5353.00000 0.9717
5354.00000 0.9727
5356.00000 0.9724
5357.00000 0.9721
5358.00000 0.9729
5360.00000 0.9745
5361.00000 0.9748
5363.00000 0.9754
5364.00000 0.9752
5365.00000 0.9761
5367.00000 0.9758
5368.00000 0.9754
5369.00000 0.974
5371.00000 0.974
5372.00000 0.9733
5374.00000 0.9727
5375.00000 0.973
5376.00000 0.9751
5378.00000 0.9753
5379.00000 0.9755
5381.00000 0.977
5382.00000 0.978
5383.00000 0.9777
5385.00000 0.9781
5386.00000 0.978
5388.00000 0.9778
5389.00000 0.9768
5390.00000 0.9764
5392.00000 0.9765
5393.00000 0.9775
5394.00000 0.977
5396.00000 0.9771
5397.00000 0.9777
5399.00000 0.9782
5400.00000 0.977
5401.00000 0.9754
5403.00000 0.976
5404.00000 0.9762
5406.00000 0.9765
5407.00000 0.9776
5408.00000 0.9796
5410.00000 0.9793
5411.00000 0.9793
5412.00000 0.979
5414.00000 0.979
5415.00000 0.9784
5417.00000 0.9788
5418.00000 0.9791
5419.00000 0.9796
5421.00000 0.9793
5422.00000 0.9803
5424.00000 0.9802
5425.00000 0.9791
5426.00000 0.9785
5428.00000 0.9788
5429.00000 0.9783
5430.00000 0.978
5432.00000 0.9778
5433.00000 0.9781
5435.00000 0.9792
5436.00000 0.9791
5437.00000 0.9791
5439.00000 0.9792
5440.00000 0.9804
5441.00000 0.9801
5443.00000 0.9805
5444.00000 0.9814
5446.00000 0.9811
5447.00000 0.9803
5448.00000 0.9795
5450.00000 0.9794
5451.00000 0.9813
5453.00000 0.9837
5454.00000 0.9837
5455.00000 0.9824
5457.00000 0.9839
5458.00000 0.9819
5459.00000 0.9806
5461.00000 0.9812
5462.00000 0.9817
5464.00000 0.9809
5465.00000 0.9815
5466.00000 0.9817
5468.00000 0.981
5469.00000 0.9809
5470.00000 0.9809
5472.00000 0.9801
5473.00000 0.9802
5475.00000 0.9803
5476.00000 0.981
5477.00000 0.982
5479.00000 0.9818
5480.00000 0.982
5481.00000 0.9832
5483.00000 0.9836
5484.00000 0.9805
5485.00000 0.9815
5487.00000 0.9805
5488.00000 0.9782
5490.00000 0.9786
5491.00000 0.9801
5492.00000 0.9786
5494.00000 0.9808
5495.00000 0.9821
5496.00000 0.9808
5498.00000 0.9792
5499.00000 0.9794
5501.00000 0.9789
5502.00000 0.9791
5503.00000 0.9787
5505.00000 0.9799
5506.00000 0.9792
5507.00000 0.9779
5509.00000 0.9762
5510.00000 0.9773
5512.00000 0.979
5513.00000 0.9792
5514.00000 0.9788
5516.00000 0.9781
5517.00000 0.9796
5518.00000 0.9781
5520.00000 0.9793
5521.00000 0.9798
5522.00000 0.9809
5524.00000 0.9784
5525.00000 0.9792
5527.00000 0.9773
5528.00000 0.9775
5529.00000 0.9773
5531.00000 0.9757
5532.00000 0.9762
5533.00000 0.98
5535.00000 0.9809
5536.00000 0.9816
5537.00000 0.9837
5539.00000 0.984
5540.00000 0.982
5542.00000 0.9811
5543.00000 0.9822
5544.00000 0.9829
5546.00000 0.9824
5547.00000 0.9808
5548.00000 0.9811
5550.00000 0.9806
5551.00000 0.9806
5552.00000 0.9792
5554.00000 0.9791
5555.00000 0.9794
5557.00000 0.98
5558.00000 0.9791
5559.00000 0.9802
5561.00000 0.9835
5562.00000 0.9834
5563.00000 0.9838
5565.00000 0.9841
5566.00000 0.9836
5567.00000 0.9812
5569.00000 0.9816
5570.00000 0.9783
5572.00000 0.9799
5573.00000 0.9807
5574.00000 0.9806
5576.00000 0.9832
5577.00000 0.9855
5578.00000 0.9849
5580.00000 0.9858
5581.00000 0.9867
5582.00000 0.9812
5584.00000 0.9801
5585.00000 0.9785
5586.00000 0.9778
5588.00000 0.9787
5589.00000 0.9816
5591.00000 0.9816
5592.00000 0.983
5593.00000 0.9792
5595.00000 0.979
5596.00000 0.9783
5597.00000 0.9803
5599.00000 0.9785
5600.00000 0.98
5601.00000 0.9793
5603.00000 0.9826
5604.00000 0.9819
5605.00000 0.9817
5607.00000 0.9816
5608.00000 0.9773
5609.00000 0.9736
5611.00000 0.9722
5612.00000 0.9709
5614.00000 0.9732
5615.00000 0.978
5616.00000 0.9773
5618.00000 0.9779
5619.00000 0.9827
5620.00000 0.9851
5622.00000 0.9838
5623.00000 0.9843
5624.00000 0.9861
5626.00000 0.9867
5627.00000 0.9847
5628.00000 0.9873
5630.00000 0.9858
5631.00000 0.9825
5632.00000 0.979
5634.00000 0.9762
5635.00000 0.9754
5636.00000 0.9766
5638.00000 0.9785
5639.00000 0.9799
5641.00000 0.9818
5642.00000 0.9803
5643.00000 0.9795
5645.00000 0.9801
5646.00000 0.9806
5647.00000 0.9819
5649.00000 0.9855
5650.00000 0.9869
5651.00000 0.9854
5653.00000 0.9884
5654.00000 0.9868
5655.00000 0.9815
5657.00000 0.9806
5658.00000 0.9829
5659.00000 0.9805
5661.00000 0.9751
5662.00000 0.9766
5663.00000 0.9773
5665.00000 0.9755
5666.00000 0.9754
5667.00000 0.9832
5669.00000 0.9855
5670.00000 0.9838
5671.00000 0.9853
5673.00000 0.9811
5674.00000 0.9776
5675.00000 0.9723
5677.00000 0.973
5678.00000 0.9752
5679.00000 0.9802
5681.00000 0.9828
5682.00000 0.9871
5684.00000 0.9879
5685.00000 0.9871
5686.00000 0.9852
5688.00000 0.9852
5689.00000 0.9815
5690.00000 0.9779
5692.00000 0.9734
5693.00000 0.9716
5694.00000 0.9679
5696.00000 0.9723
5697.00000 0.9712
5698.00000 0.9691
5700.00000 0.9716
6003.00000 0.9854
6006.00000 0.9849
6009.00000 0.9856
6013.00000 0.9852
6016.00000 0.9868
6020.00000 0.9863
6023.00000 0.9867
6027.00000 0.9866
6030.00000 0.9865
6033.00000 0.9852
6037.00000 0.9849
6040.00000 0.9841
6044.00000 0.9835
6047.00000 0.9835
6051.00000 0.9845
6054.00000 0.9847
6058.00000 0.985
6061.00000 0.9856
6064.00000 0.9862
6068.00000 0.9862
6071.00000 0.9868
6075.00000 0.9873
6078.00000 0.9875
6082.00000 0.9869
6085.00000 0.9864
6088.00000 0.9864
6092.00000 0.9863
6095.00000 0.9867
6099.00000 0.9866
6102.00000 0.9865
6106.00000 0.9862
6109.00000 0.9864
6112.00000 0.9854
6116.00000 0.9863
6119.00000 0.9865
6123.00000 0.986
6126.00000 0.9862
6130.00000 0.9864
6133.00000 0.9855
6136.00000 0.9854
6140.00000 0.9859
6143.00000 0.986
6147.00000 0.9857
6150.00000 0.9858
6154.00000 0.9859
6157.00000 0.9859
6160.00000 0.9858
6164.00000 0.986
6167.00000 0.9863
6171.00000 0.9866
6174.00000 0.9865
6178.00000 0.987
6181.00000 0.9876
6184.00000 0.9873
6188.00000 0.9868
6191.00000 0.987
6195.00000 0.9862
6198.00000 0.9857
6201.00000 0.9862
6205.00000 0.9862
6208.00000 0.9863
6212.00000 0.9866
6215.00000 0.9871
6219.00000 0.9869
6222.00000 0.9867
6225.00000 0.9862
6229.00000 0.9857
6232.00000 0.9846
6236.00000 0.9839
6239.00000 0.9836
6242.00000 0.9838
6246.00000 0.9842
6249.00000 0.9845
6253.00000 0.9853
6256.00000 0.9859
6260.00000 0.9866
6263.00000 0.9867
6266.00000 0.9871
6270.00000 0.9864
6273.00000 0.9863
6277.00000 0.9853
6280.00000 0.9847
6283.00000 0.985
6287.00000 0.9852
6290.00000 0.9851
6294.00000 0.9849
6297.00000 0.9847
6300.00000 0.985
6304.00000 0.9845
6307.00000 0.9844
6311.00000 0.985
6314.00000 0.9852
6317.00000 0.9842
6321.00000 0.9844
6324.00000 0.9844
6328.00000 0.9836
6331.00000 0.9835
6334.00000 0.9841
6338.00000 0.9842
6341.00000 0.9844
6345.00000 0.9852
6348.00000 0.9852
6351.00000 0.9852
6355.00000 0.9852
6358.00000 0.9854
6362.00000 0.9853
6365.00000 0.9853
6368.00000 0.9851
6372.00000 0.9852
6375.00000 0.9848
6379.00000 0.9844
6382.00000 0.9844
6385.00000 0.9841
6389.00000 0.9839
6392.00000 0.9837
6396.00000 0.9839
6399.00000 0.9836
6402.00000 0.9836
6406.00000 0.9835
6409.00000 0.9828
6413.00000 0.9828
6416.00000 0.983
6419.00000 0.9831
6423.00000 0.9832
6426.00000 0.9838
6429.00000 0.9835
6433.00000 0.983
6436.00000 0.9824
6440.00000 0.9821
6443.00000 0.9824
6446.00000 0.9831
6450.00000 0.9833
6453.00000 0.9836
6457.00000 0.984
6460.00000 0.9837
6463.00000 0.9828
6467.00000 0.9831
6470.00000 0.9826
6474.00000 0.9823
6477.00000 0.982
6480.00000 0.9825
6484.00000 0.9826
6487.00000 0.9835
6490.00000 0.9837
6494.00000 0.9838
6497.00000 0.984
6501.00000 0.9835
6504.00000 0.9828
6507.00000 0.9828
6511.00000 0.9828
6514.00000 0.9819
6517.00000 0.9815
6521.00000 0.9815
6524.00000 0.9811
6528.00000 0.9809
6531.00000 0.9816
6534.00000 0.9823
6538.00000 0.9826
6541.00000 0.9822
6544.00000 0.9825
6548.00000 0.9827
6551.00000 0.9824
6555.00000 0.9825
6558.00000 0.9827
6561.00000 0.9827
6565.00000 0.982
6568.00000 0.9819
6571.00000 0.9817
6575.00000 0.9823
6578.00000 0.9826
6582.00000 0.9829
6585.00000 0.983
6588.00000 0.9829
6592.00000 0.9824
6595.00000 0.9817
6598.00000 0.9814
6602.00000 0.9811
6605.00000 0.981
6608.00000 0.9807
6612.00000 0.9803
6615.00000 0.9804
6619.00000 0.9809
6622.00000 0.9809
6625.00000 0.981
6629.00000 0.9816
6632.00000 0.982
6635.00000 0.982
6639.00000 0.9818
6642.00000 0.9819
6645.00000 0.9822
6649.00000 0.9817
6652.00000 0.9813
6656.00000 0.9814
6659.00000 0.9815
6662.00000 0.9809
6666.00000 0.9802
6669.00000 0.9801
6672.00000 0.9797
6676.00000 0.9793
6679.00000 0.9792
6682.00000 0.9798
6686.00000 0.9793
6689.00000 0.9787
6692.00000 0.9792
6696.00000 0.9792
6699.00000 0.9792
6703.00000 0.9797
6706.00000 0.9803
6709.00000 0.9805
6713.00000 0.9805
6716.00000 0.9805
6719.00000 0.9805
6723.00000 0.9808
6726.00000 0.9806
6729.00000 0.9806
6733.00000 0.9805
6736.00000 0.98
6739.00000 0.9794
6743.00000 0.9789
6746.00000 0.9787
6749.00000 0.9779
6753.00000 0.9782
6756.00000 0.9782
6759.00000 0.9781
6763.00000 0.9787
6766.00000 0.9792
6770.00000 0.979
6773.00000 0.9788
6776.00000 0.9787
6780.00000 0.978
6783.00000 0.9782
6786.00000 0.978
6790.00000 0.9779
6793.00000 0.9775
6796.00000 0.977
6800.00000 0.9766
6803.00000 0.9767
6806.00000 0.9771
6810.00000 0.9772
6813.00000 0.978
6816.00000 0.9777
6820.00000 0.9772
6823.00000 0.9766
6826.00000 0.9763
6830.00000 0.976
6833.00000 0.9759
6836.00000 0.9764
6840.00000 0.9768
6843.00000 0.9767
6846.00000 0.9767
6850.00000 0.9766
6853.00000 0.976
6856.00000 0.9758
6860.00000 0.9756
6863.00000 0.9753
6866.00000 0.9755
6870.00000 0.9754
6873.00000 0.9752
6876.00000 0.975
6880.00000 0.9743
6883.00000 0.9738
6886.00000 0.9737
6890.00000 0.9738
6893.00000 0.974
6896.00000 0.9743
6900.00000 0.9744
6903.00000 0.9743
6906.00000 0.9742
6910.00000 0.9745
6913.00000 0.9748
6916.00000 0.9742
6920.00000 0.9741
6923.00000 0.9735
6926.00000 0.9732
6930.00000 0.9727
6933.00000 0.9729
6936.00000 0.973
6940.00000 0.9734
6943.00000 0.9731
6946.00000 0.9734
6950.00000 0.9735
6953.00000 0.9735
6956.00000 0.9734
6959.00000 0.9729
6963.00000 0.9727
6966.00000 0.9725
6969.00000 0.9726
6973.00000 0.9727
6976.00000 0.9726
6979.00000 0.9725
6983.00000 0.9722
6986.00000 0.9717
6989.00000 0.9719
6993.00000 0.9719
6996.00000 0.9719
6999.00000 0.972
7003.00000 0.9723
7006.00000 0.9715
7009.00000 0.9718
7013.00000 0.9715
7016.00000 0.9711
7019.00000 0.9706
7022.00000 0.9706
7026.00000 0.9705
7029.00000 0.971
7032.00000 0.9716
7036.00000 0.9716
7039.00000 0.9712
7042.00000 0.9709
7046.00000 0.9703
7049.00000 0.9696
7052.00000 0.9698
7056.00000 0.9703
7059.00000 0.9709
7062.00000 0.9712
7065.00000 0.9718
7069.00000 0.9713
7072.00000 0.9708
7075.00000 0.9703
7079.00000 0.9698
7082.00000 0.9687
7085.00000 0.9694
7089.00000 0.9693
7092.00000 0.9689
7095.00000 0.9689
7099.00000 0.9692
7102.00000 0.9683
7105.00000 0.9679
7108.00000 0.9679
7112.00000 0.9681
7115.00000 0.9681
7118.00000 0.9685
7122.00000 0.9688
7125.00000 0.9689
7128.00000 0.9685
7132.00000 0.9683
7135.00000 0.968
7138.00000 0.9676
7141.00000 0.9673
7145.00000 0.9672
7148.00000 0.967
7151.00000 0.9667
7155.00000 0.9667
7158.00000 0.9667
7161.00000 0.967
7164.00000 0.9673
7168.00000 0.9674
7171.00000 0.967
7174.00000 0.9669
7178.00000 0.9666
7181.00000 0.9661
7184.00000 0.9657
7188.00000 0.9658
7191.00000 0.9657
7194.00000 0.9654
7197.00000 0.9659
7201.00000 0.9658
7204.00000 0.966
7207.00000 0.9661
7211.00000 0.9657
7214.00000 0.9651
7217.00000 0.9651
7220.00000 0.9649
7224.00000 0.9653
7227.00000 0.9656
7230.00000 0.9658
7234.00000 0.9662
7237.00000 0.9661
7240.00000 0.9658
7243.00000 0.9655
7247.00000 0.9656
7250.00000 0.9648
7253.00000 0.9644
7257.00000 0.9642
7260.00000 0.9638
7263.00000 0.9632
7266.00000 0.964
7270.00000 0.9642
7273.00000 0.9644
7276.00000 0.965
7279.00000 0.9651
7283.00000 0.965
7286.00000 0.9654
7289.00000 0.965
7293.00000 0.9647
7296.00000 0.9649
7299.00000 0.9647
7302.00000 0.9643
7306.00000 0.9637
7309.00000 0.9635
7312.00000 0.963
7315.00000 0.963
7319.00000 0.9626
7322.00000 0.9628
7325.00000 0.9627
7329.00000 0.9625
7332.00000 0.9625
7335.00000 0.9626
7338.00000 0.9627
7342.00000 0.9623
7345.00000 0.9626
7348.00000 0.9626
7351.00000 0.9628
7355.00000 0.9631
7358.00000 0.9636
7361.00000 0.9636
7365.00000 0.9632
7368.00000 0.9628
7371.00000 0.962
7374.00000 0.9619
7378.00000 0.9617
7381.00000 0.9611
7384.00000 0.9615
7387.00000 0.9618
7391.00000 0.9617
7394.00000 0.9614
7397.00000 0.9617
7400.00000 0.9607
7404.00000 0.9604
7407.00000 0.9601
7410.00000 0.9598
7413.00000 0.9599
7417.00000 0.9596
7420.00000 0.9589
7423.00000 0.9593
7427.00000 0.9596
7430.00000 0.9594
7433.00000 0.9602
7436.00000 0.9605
7440.00000 0.9602
7443.00000 0.9603
7446.00000 0.9602
7449.00000 0.959
7453.00000 0.9589
7456.00000 0.9585
7459.00000 0.9582
7462.00000 0.9584
7466.00000 0.9584
7469.00000 0.9583
7472.00000 0.9586
7475.00000 0.9578
7479.00000 0.9574
7482.00000 0.9577
7485.00000 0.9575
7488.00000 0.9572
7492.00000 0.9577
7495.00000 0.9577
7498.00000 0.9578
7501.00000 0.958
7505.00000 0.9582
7508.00000 0.9581
7511.00000 0.9581
7514.00000 0.9579
7518.00000 0.9576
7521.00000 0.9574
7524.00000 0.9573
7527.00000 0.9571
7531.00000 0.9568
7534.00000 0.9567
7537.00000 0.9565
7540.00000 0.9563
7544.00000 0.9563
7547.00000 0.9568
7550.00000 0.9566
7553.00000 0.9563
7556.00000 0.956
7560.00000 0.9558
7563.00000 0.956
7566.00000 0.9566
7569.00000 0.9567
7573.00000 0.957
7576.00000 0.9567
7579.00000 0.9564
7582.00000 0.9561
7586.00000 0.9553
7589.00000 0.9554
7592.00000 0.955
7595.00000 0.9539
7599.00000 0.9532
7602.00000 0.9532
7605.00000 0.9533
7608.00000 0.9537
7612.00000 0.9546
7615.00000 0.9554
7618.00000 0.9556
7621.00000 0.9552
7624.00000 0.9552
7628.00000 0.9552
7631.00000 0.9547
7634.00000 0.955
7637.00000 0.9547
7641.00000 0.9545
7644.00000 0.9545
7647.00000 0.9545
7650.00000 0.9547
7654.00000 0.9546
7657.00000 0.9545
7660.00000 0.954
7663.00000 0.9543
7666.00000 0.9541
7670.00000 0.9538
7673.00000 0.9541
7676.00000 0.9537
7679.00000 0.9533
7683.00000 0.9532
7686.00000 0.953
7689.00000 0.9524
7692.00000 0.9532
7695.00000 0.9533
7699.00000 0.9534
7702.00000 0.9537
7705.00000 0.9542
7708.00000 0.9534
7712.00000 0.9525
7715.00000 0.9526
7718.00000 0.953
7721.00000 0.953
7724.00000 0.9537
7728.00000 0.9541
7731.00000 0.954
7734.00000 0.9535
7737.00000 0.9533
7741.00000 0.9524
7744.00000 0.9524
7747.00000 0.9519
7750.00000 0.9519
7753.00000 0.952
7757.00000 0.9525
7760.00000 0.9524
7763.00000 0.952
7766.00000 0.9514
7769.00000 0.9507
7773.00000 0.9504
7776.00000 0.9499
7779.00000 0.9492
7782.00000 0.9498
7785.00000 0.9499
7789.00000 0.9493
7792.00000 0.9499
7795.00000 0.951
7798.00000 0.9506
7802.00000 0.9508
7805.00000 0.9507
7808.00000 0.9501
7811.00000 0.9499
7814.00000 0.9499
7818.00000 0.9496
7821.00000 0.9501
7824.00000 0.9507
7827.00000 0.9507
7830.00000 0.9508
7834.00000 0.9515
7837.00000 0.951
7840.00000 0.9507
7843.00000 0.9513
7846.00000 0.9514
7850.00000 0.9509
7853.00000 0.9514
7856.00000 0.9506
7859.00000 0.9501
7862.00000 0.9499
7866.00000 0.9496
7869.00000 0.9494
7872.00000 0.95
7875.00000 0.9498
7878.00000 0.9497
7882.00000 0.9495
7885.00000 0.9498
7888.00000 0.9501
7891.00000 0.9499
7894.00000 0.9498
7898.00000 0.9499
7901.00000 0.9494
7904.00000 0.9481
7907.00000 0.9489
7910.00000 0.9489
7914.00000 0.9487
7917.00000 0.9487
7920.00000 0.9496
7923.00000 0.9484
7926.00000 0.9484
7929.00000 0.9484
7933.00000 0.9486
7936.00000 0.9489
7939.00000 0.9495
7942.00000 0.95
7945.00000 0.9501
7949.00000 0.9507
7952.00000 0.9502
7955.00000 0.9498
7958.00000 0.9491
7961.00000 0.9488
7965.00000 0.9481
7968.00000 0.9477
7971.00000 0.947
7974.00000 0.9476
7977.00000 0.9477
7980.00000 0.9477
7984.00000 0.947
7987.00000 0.9472
7990.00000 0.947
7993.00000 0.9469
7996.00000 0.9468
8000.00000 0.9473
8003.00000 0.9481
8006.00000 0.9484
8009.00000 0.9487
8012.00000 0.9491
8015.00000 0.9493
8019.00000 0.9494
8022.00000 0.9492
8025.00000 0.9491
8028.00000 0.9479
8031.00000 0.9468
8035.00000 0.9463
8038.00000 0.9457
8041.00000 0.9452
8044.00000 0.9455
8047.00000 0.9466
8050.00000 0.9468
8054.00000 0.9471
8057.00000 0.9478
8060.00000 0.9486
8063.00000 0.9484
8066.00000 0.9481
8069.00000 0.948
8073.00000 0.9477
8076.00000 0.9476
8079.00000 0.9478
8082.00000 0.9476
8085.00000 0.9474
8088.00000 0.9464
8092.00000 0.9456
8095.00000 0.9453
8098.00000 0.9455
8101.00000 0.9455
8104.00000 0.9464
8107.00000 0.9471
8111.00000 0.9471
8114.00000 0.9469
8117.00000 0.9473
8120.00000 0.9469
8123.00000 0.9464
8126.00000 0.9461
8130.00000 0.946
8133.00000 0.9462
8136.00000 0.9466
8139.00000 0.9465
8142.00000 0.9464
8145.00000 0.947
8149.00000 0.9466
8152.00000 0.9463
8155.00000 0.9457
8158.00000 0.9462
8161.00000 0.9461
8164.00000 0.9453
8168.00000 0.9459
8171.00000 0.9464
8174.00000 0.9465
8177.00000 0.9475
8180.00000 0.9472
8183.00000 0.9467
8186.00000 0.9468
8190.00000 0.9461
8193.00000 0.945
8196.00000 0.9456
8199.00000 0.9454
8202.00000 0.9459
8205.00000 0.9462
8209.00000 0.9464
8212.00000 0.9466
8215.00000 0.9471
8218.00000 0.9466
8221.00000 0.9468
8224.00000 0.9467
8227.00000 0.9466
8231.00000 0.9458
8234.00000 0.9451
8237.00000 0.9449
8240.00000 0.9442
8243.00000 0.9437
8246.00000 0.9435
8249.00000 0.944
8253.00000 0.9442
8256.00000 0.9445
8259.00000 0.9455
8262.00000 0.9464
8265.00000 0.9468
8268.00000 0.9466
8272.00000 0.9464
8275.00000 0.9459
8278.00000 0.945
8281.00000 0.9451
8284.00000 0.9453
8287.00000 0.9455
8290.00000 0.9453
8294.00000 0.9461
8297.00000 0.9455
8300.00000 0.9454
8303.00000 0.9457
8306.00000 0.9459
8309.00000 0.945
8312.00000 0.9461
8315.00000 0.9458
8319.00000 0.9453
8322.00000 0.9445
8325.00000 0.9448
8328.00000 0.9437
8331.00000 0.9436
8334.00000 0.9432
8337.00000 0.9433
8341.00000 0.9426
8344.00000 0.9422
8347.00000 0.9422
8350.00000 0.9431
8353.00000 0.9438
8356.00000 0.9446
8359.00000 0.9456
8362.00000 0.9461
8366.00000 0.9456
8369.00000 0.945
8372.00000 0.9453
8375.00000 0.9453
8378.00000 0.9445
8381.00000 0.9448
8384.00000 0.9455
8388.00000 0.9452
8391.00000 0.9454
8394.00000 0.9461
8397.00000 0.9462
8400.00000 0.9455
8403.00000 0.9449
8406.00000 0.9443
8409.00000 0.9434
8413.00000 0.9426
8416.00000 0.9431
8419.00000 0.9426
8422.00000 0.9428
8425.00000 0.9437
8428.00000 0.9446
8431.00000 0.9444
8434.00000 0.9454
8437.00000 0.9456
8441.00000 0.9452
8444.00000 0.9444
8447.00000 0.9437
8450.00000 0.9437
8453.00000 0.9434
8456.00000 0.9438
8459.00000 0.944
8462.00000 0.944
8466.00000 0.9436
8469.00000 0.9426
8472.00000 0.9418
8475.00000 0.9414
8478.00000 0.942
8481.00000 0.9425
8484.00000 0.9436
8487.00000 0.9439
8490.00000 0.9447
8494.00000 0.9447
8497.00000 0.9446
8500.00000 0.9445
8503.00000 0.9443
8506.00000 0.9439
8509.00000 0.944
8512.00000 0.9444
8515.00000 0.9448
8518.00000 0.9454
8522.00000 0.9459
8525.00000 0.9459
8528.00000 0.9453
8531.00000 0.9446
8534.00000 0.9446
8537.00000 0.9443
8540.00000 0.944
8543.00000 0.9444
8546.00000 0.944
8550.00000 0.9432
8553.00000 0.9433
8556.00000 0.9441
8559.00000 0.9439
8562.00000 0.9443
8565.00000 0.9446
8568.00000 0.9441
8571.00000 0.9435
8574.00000 0.9434
8577.00000 0.9441
8581.00000 0.9447
8584.00000 0.9447
8587.00000 0.9445
8590.00000 0.9444
8593.00000 0.9436
8596.00000 0.943
8599.00000 0.9436
8602.00000 0.944
8605.00000 0.9443
8608.00000 0.9449
8612.00000 0.9452
8615.00000 0.9449
8618.00000 0.9449
8621.00000 0.9445
8624.00000 0.9438
8627.00000 0.9431
8630.00000 0.9434
8633.00000 0.9433
8636.00000 0.9436
8639.00000 0.9445
8642.00000 0.9446
8646.00000 0.9444
8649.00000 0.9443
8652.00000 0.9442
8655.00000 0.9439
8658.00000 0.9442
8661.00000 0.9443
8664.00000 0.9445
8667.00000 0.9444
8670.00000 0.9437
8673.00000 0.9438
8676.00000 0.9429
8680.00000 0.9422
8683.00000 0.9427
8686.00000 0.9434
8689.00000 0.9438
8692.00000 0.9442
8695.00000 0.9445
8698.00000 0.9445
8701.00000 0.9442
8704.00000 0.9446
8707.00000 0.9451
8710.00000 0.945
8713.00000 0.9451
8717.00000 0.9449
8720.00000 0.9442
8723.00000 0.9438
8726.00000 0.9444
8729.00000 0.944
8732.00000 0.9444
8735.00000 0.9444
8738.00000 0.9445
8741.00000 0.9444
8744.00000 0.9445
8747.00000 0.9438
8750.00000 0.9438
8753.00000 0.9439
8757.00000 0.9434
8760.00000 0.9428
8763.00000 0.9431
8766.00000 0.9424
8769.00000 0.9416
8772.00000 0.9409
8775.00000 0.9411
8778.00000 0.941
8781.00000 0.9415
8784.00000 0.9418
8787.00000 0.9429
8790.00000 0.9425
8793.00000 0.9431
8797.00000 0.9426
8800.00000 0.9425
8803.00000 0.9421
8806.00000 0.9423
8809.00000 0.9425
8812.00000 0.9429
8815.00000 0.9425
8818.00000 0.9418
8821.00000 0.9422
8824.00000 0.9408
8827.00000 0.9402
8830.00000 0.9407
8833.00000 0.9415
8836.00000 0.941
8839.00000 0.9411
8843.00000 0.9418
8846.00000 0.9415
8849.00000 0.9412
8852.00000 0.9419
8855.00000 0.9427
8858.00000 0.9424
8861.00000 0.9438
8864.00000 0.944
8867.00000 0.9443
8870.00000 0.9443
8873.00000 0.945
8876.00000 0.9442
8879.00000 0.9451
8882.00000 0.9444
8885.00000 0.9437
8888.00000 0.9428
8891.00000 0.9428
8895.00000 0.9428
8898.00000 0.9421
8901.00000 0.9424
8904.00000 0.9427
8907.00000 0.9427
8910.00000 0.9418
8913.00000 0.9427
8916.00000 0.9435
8919.00000 0.9429
8922.00000 0.9433
8925.00000 0.9426
8928.00000 0.9421
8931.00000 0.9404
8934.00000 0.9413
8937.00000 0.941
8940.00000 0.9411
8943.00000 0.9414
8946.00000 0.9425
8949.00000 0.9419
8953.00000 0.9413
8956.00000 0.9422
8959.00000 0.9418
8962.00000 0.9414
8965.00000 0.9405
8968.00000 0.9413
8971.00000 0.9412
8974.00000 0.9412
8977.00000 0.9413
8980.00000 0.9421
8983.00000 0.9407
8986.00000 0.94
8989.00000 0.9405
8992.00000 0.9406
8995.00000 0.9399
8998.00000 0.9413
9001.00000 0.9406
9004.00000 0.9409
9007.00000 0.9415
9010.00000 0.9423
9013.00000 0.9413
9016.00000 0.9428
9019.00000 0.9425
9022.00000 0.9417
9026.00000 0.9411
9029.00000 0.9409
9032.00000 0.9397
9035.00000 0.9395
9038.00000 0.9388
9041.00000 0.9397
9044.00000 0.9396
9047.00000 0.9401
9050.00000 0.9395
9053.00000 0.94
9056.00000 0.94
9059.00000 0.9412
9062.00000 0.9419
9065.00000 0.9426
9068.00000 0.942
9071.00000 0.9416
9074.00000 0.9415
9077.00000 0.9414
9080.00000 0.9421
9083.00000 0.9437
9086.00000 0.9451
9089.00000 0.9449
9092.00000 0.9433
9095.00000 0.9437
9098.00000 0.9433
9101.00000 0.9421
9104.00000 0.9422
9107.00000 0.9428
9110.00000 0.9417
9113.00000 0.9411
9116.00000 0.9425
9119.00000 0.9428
9122.00000 0.9434
9126.00000 0.9436
9129.00000 0.9433
9132.00000 0.9417
9135.00000 0.9413
9138.00000 0.9409
9141.00000 0.9407
9144.00000 0.941
9147.00000 0.941
9150.00000 0.9409
9153.00000 0.9416
9156.00000 0.9413
9159.00000 0.9402
9162.00000 0.9405
9165.00000 0.9401
9168.00000 0.9399
9171.00000 0.9403
9174.00000 0.9403
9177.00000 0.9392
9180.00000 0.9388
9183.00000 0.9393
9186.00000 0.9387
9189.00000 0.9394
9192.00000 0.9397
9195.00000 0.9408
9198.00000 0.9392
9201.00000 0.9398
9204.00000 0.9401
9207.00000 0.9403
9210.00000 0.9392
9213.00000 0.94
9216.00000 0.9397
9219.00000 0.9391
9222.00000 0.9402
9225.00000 0.9406
9228.00000 0.9409
9231.00000 0.9403
9234.00000 0.9399
9237.00000 0.9387
9240.00000 0.9384
9243.00000 0.9385
9246.00000 0.9398
9249.00000 0.9411
9252.00000 0.9421
9255.00000 0.943
9258.00000 0.9429
9261.00000 0.9424
9264.00000 0.9417
9267.00000 0.9418
9270.00000 0.941
9273.00000 0.9397
9276.00000 0.9399
9279.00000 0.9393
9282.00000 0.9377
9285.00000 0.937
9288.00000 0.9386
9291.00000 0.9385
9294.00000 0.9393
9297.00000 0.9407
9300.00000 0.9412
9303.00000 0.9403
9306.00000 0.9395
9309.00000 0.9396
9312.00000 0.9397
9315.00000 0.9403
9318.00000 0.9405
9321.00000 0.941
9324.00000 0.941
9327.00000 0.9404
9330.00000 0.9406
9333.00000 0.9408
9336.00000 0.9412
9339.00000 0.9393
9342.00000 0.9389
9345.00000 0.9379
9348.00000 0.9384
9351.00000 0.938
9354.00000 0.9398
9357.00000 0.9394
9360.00000 0.9386
9363.00000 0.937
9366.00000 0.9356
9369.00000 0.9352
9372.00000 0.9368
9375.00000 0.937
9378.00000 0.9394
9381.00000 0.9416
9384.00000 0.9412
9387.00000 0.9383
9390.00000 0.9397
9393.00000 0.9378
9396.00000 0.9346
9399.00000 0.9355
9402.00000 0.9364
9405.00000 0.9349
9408.00000 0.9347
9411.00000 0.9359
9414.00000 0.9357
9417.00000 0.9372
9420.00000 0.9387
9423.00000 0.9381
9426.00000 0.9396
9429.00000 0.9418
9432.00000 0.9416
9435.00000 0.9422
9438.00000 0.9419
9441.00000 0.9422
9443.00000 0.9414
9446.00000 0.9432
9449.00000 0.9425
9452.00000 0.9431
9455.00000 0.9435
9458.00000 0.943
9461.00000 0.94
9464.00000 0.94
9467.00000 0.9419
9470.00000 0.9422
9473.00000 0.9411
9476.00000 0.9438
9479.00000 0.9441
9482.00000 0.941
9485.00000 0.9387
9488.00000 0.9384
9491.00000 0.9361
9494.00000 0.9355
9497.00000 0.9358
9500.00000 0.9354
9503.00000 0.9347
9506.00000 0.9343
9509.00000 0.9343
9512.00000 0.9351
9515.00000 0.9355
9518.00000 0.9372
9521.00000 0.937
9524.00000 0.9363
9527.00000 0.9386
9530.00000 0.9377
9533.00000 0.9366
9536.00000 0.9383
9539.00000 0.9401
9541.00000 0.9394
9544.00000 0.9407
9547.00000 0.9413
9550.00000 0.9409
9553.00000 0.9388
9556.00000 0.9378
9559.00000 0.9387
9562.00000 0.9387
9565.00000 0.9385
9568.00000 0.9387
9571.00000 0.9381
9574.00000 0.9379
9577.00000 0.9391
9580.00000 0.9406
9583.00000 0.9411
9586.00000 0.9432
9589.00000 0.9424
9592.00000 0.9423
9595.00000 0.9426
9598.00000 0.9436
9601.00000 0.9417
9604.00000 0.9421
9607.00000 0.941
9609.00000 0.9385
9612.00000 0.9373
9615.00000 0.937
9618.00000 0.9363
9621.00000 0.9356
9624.00000 0.936
9627.00000 0.9351
9630.00000 0.9341
9633.00000 0.9334
9636.00000 0.9343
9639.00000 0.9357
9642.00000 0.9367
9645.00000 0.938
9648.00000 0.9396
9651.00000 0.9385
9654.00000 0.9369
9657.00000 0.9371
9660.00000 0.9366
9663.00000 0.9357
9666.00000 0.9358
9668.00000 0.9357
9671.00000 0.9359
9674.00000 0.937
9677.00000 0.9373
9680.00000 0.9377
9683.00000 0.9369
9686.00000 0.9359
9689.00000 0.9348
9692.00000 0.936
9695.00000 0.9365
9698.00000 0.9368
9701.00000 0.9368
9704.00000 0.9381
9707.00000 0.9376
9710.00000 0.9363
9713.00000 0.9368
9715.00000 0.9364
9718.00000 0.9358
9721.00000 0.9366
9724.00000 0.937
9727.00000 0.9363
9730.00000 0.9367
9733.00000 0.9363
9736.00000 0.9349
9739.00000 0.9357
9742.00000 0.937
9745.00000 0.9376
9748.00000 0.9383
9751.00000 0.9392
9754.00000 0.9412
9757.00000 0.9398
9759.00000 0.9406
9762.00000 0.9417
9765.00000 0.9411
9768.00000 0.9393
9771.00000 0.9406
9774.00000 0.9395
9777.00000 0.9378
9780.00000 0.9371
9783.00000 0.9367
9786.00000 0.9376
9789.00000 0.939
9792.00000 0.9371
9795.00000 0.9398
9798.00000 0.9396
9800.00000 0.9389
9803.00000 0.9381
9806.00000 0.9399
9809.00000 0.9373
9812.00000 0.9381
9815.00000 0.937
9818.00000 0.9382
9821.00000 0.9385
9824.00000 0.9383
9827.00000 0.9375
9830.00000 0.9379
9833.00000 0.9377
9836.00000 0.9375
9838.00000 0.9379
9841.00000 0.9391
9844.00000 0.94
9847.00000 0.9385
9850.00000 0.9405
9853.00000 0.9401
9856.00000 0.9395
9859.00000 0.9394
9862.00000 0.9396
9865.00000 0.9379
9868.00000 0.9393
9871.00000 0.9386
9873.00000 0.9377
9876.00000 0.9377
9879.00000 0.9373
9882.00000 0.9353
9885.00000 0.9345
9888.00000 0.9341
9891.00000 0.9333
9894.00000 0.9326
9897.00000 0.9346
9900.00000 0.9357
9903.00000 0.9367
9905.00000 0.9372
9908.00000 0.9377
9911.00000 0.9359
9914.00000 0.9355
9917.00000 0.9341
9920.00000 0.9339
9923.00000 0.9334
9926.00000 0.9327
9929.00000 0.9334
9932.00000 0.9338
9935.00000 0.9352
9937.00000 0.9343
9940.00000 0.9359
9943.00000 0.9358
9946.00000 0.9359
9949.00000 0.9337
9952.00000 0.9355
9955.00000 0.9345
9958.00000 0.9334
9961.00000 0.9333
9964.00000 0.9334
9966.00000 0.9336
9969.00000 0.9358
9972.00000 0.9372
9975.00000 0.9379
9978.00000 0.9385
9981.00000 0.9382
9984.00000 0.9355
9987.00000 0.9345
9990.00000 0.935
9993.00000 0.9352
9995.00000 0.9364
9998.00000 0.938
10001.00000 0.9371
11001.09961 0.0
