# %ECSV 0.9
# ---
# datatype:
# - {name: wavelength, unit: Angstrom, datatype: float32}
# - {name: response, datatype: float32}
# meta: !!omap
# - {band_name: MMTF9163}
# - {group_name: IMACS}
wavelength response
7728.03027 0.0
8586.70020 0.00026
8589.79980 0.00029
8592.90039 0.00021
8596.00000 0.00024
8599.09961 0.00032
8602.20020 0.00035
8605.29980 0.00043
8608.40039 0.00041
8611.50000 0.00043
8614.59961 0.00041
8617.70020 0.00049
8620.79980 0.00047
8623.90039 0.0005
8627.00000 0.00048
8630.09961 0.00056
8633.20020 0.00059
8636.20020 0.00068
8639.29980 0.00054
8642.40039 0.00062
8645.50000 0.00072
8648.59961 0.0008
8651.70020 0.00084
8654.79980 0.00092
8657.90039 0.00078
8661.00000 0.00087
8664.09961 0.00073
8667.09961 0.00075
8670.20020 0.00073
8673.29980 0.00076
8676.40039 0.00068
8679.50000 0.00059
8682.59961 0.00045
8685.70020 0.00047
8688.79980 0.00045
8691.79980 0.00054
8694.90039 0.00046
8698.00000 0.00054
8701.09961 0.00046
8704.20020 0.00042
8707.29980 0.00046
8710.29980 0.00062
8713.40039 0.0006
8716.50000 0.00069
8719.59961 0.0006
8722.70020 0.0007
8725.70020 0.00074
8728.79980 0.00077
8731.90039 0.00069
8735.00000 0.00078
8738.09961 0.00083
8741.09961 0.00099
8744.20020 0.00091
8747.29980 0.00094
8750.40039 0.00098
8753.40039 0.00108
8756.50000 0.00106
8759.59961 0.00102
8762.70020 0.00114
8765.70020 0.00117
8768.79980 0.00115
8771.90039 0.00111
8775.00000 0.00094
8778.00000 0.0009
8781.09961 0.00088
8784.20020 0.00084
8787.29980 0.00074
8790.29980 0.00091
8793.40039 0.00096
8796.50000 0.00085
8799.50000 0.00082
8802.59961 0.00085
8805.70020 0.00082
8808.70020 0.00078
8811.79980 0.00083
8814.90039 0.00115
8817.90039 0.00127
8821.00000 0.00181
8824.09961 0.00207
8827.09961 0.00232
8830.20020 0.00273
8833.29980 0.0032
8836.29980 0.00391
8839.40039 0.00468
8842.50000 0.00525
8845.50000 0.00595
8848.59961 0.00673
8851.59961 0.00773
8854.70020 0.0086
8857.79980 0.00954
8860.79980 0.01064
8863.90039 0.01181
8867.00000 0.01284
8870.00000 0.01348
8873.09961 0.01432
8876.09961 0.01529
8879.20020 0.01603
8882.20020 0.01647
8885.29980 0.01695
8888.40039 0.01714
8891.40039 0.01752
8894.50000 0.01797
8897.50000 0.01835
8900.59961 0.01941
8903.59961 0.02087
8906.70020 0.02234
8909.70020 0.02375
8912.79980 0.02549
8915.90039 0.02714
8918.90039 0.02908
8922.00000 0.03164
8925.00000 0.0342
8928.09961 0.03705
8931.09961 0.03989
8934.20020 0.04223
8937.20020 0.04447
8940.29980 0.04765
8943.29980 0.05112
8946.40039 0.05468
8949.40039 0.05922
8952.50000 0.06392
8955.50000 0.06831
8958.50000 0.07348
8961.59961 0.07856
8964.59961 0.0846
8967.70020 0.09129
8970.70020 0.09842
8973.79980 0.10551
8976.79980 0.11396
8979.90039 0.12324
8982.90039 0.13263
8986.00000 0.14253
8989.00000 0.15404
8992.00000 0.16633
8995.09961 0.17984
8998.09961 0.19406
9001.20020 0.20968
9004.20020 0.2262
9007.20020 0.24446
9010.29980 0.2627
9013.29980 0.28188
9016.40039 0.30256
9019.40039 0.32488
9022.40039 0.34753
9025.50000 0.37051
9028.50000 0.39506
9031.50000 0.4202
9034.59961 0.44593
9037.59961 0.47207
9040.70020 0.49803
9043.70020 0.52422
9046.70020 0.55093
9049.79980 0.57706
9052.79980 0.6028
9055.79980 0.62709
9058.90039 0.65025
9061.90039 0.67252
9064.90039 0.69433
9067.90039 0.71412
9071.00000 0.73238
9074.00000 0.74996
9077.00000 0.76594
9080.09961 0.77987
9083.09961 0.79268
9086.09961 0.80417
9089.20020 0.81412
9092.20020 0.82343
9095.20020 0.83131
9098.20020 0.83773
9101.29980 0.84355
9104.29980 0.84895
9107.29980 0.85242
9110.29980 0.85564
9113.40039 0.85871
9116.40039 0.86078
9119.40039 0.8622
9122.40039 0.863
9125.50000 0.86406
9128.50000 0.86415
9131.50000 0.86425
9134.50000 0.86409
9137.50000 0.8637
9140.59961 0.86421
9143.59961 0.86406
9146.59961 0.86349
9149.59961 0.86324
9152.59961 0.86317
9155.70020 0.86289
9158.70020 0.86278
9161.70020 0.86306
9164.70020 0.86355
9167.70020 0.86357
9170.79980 0.86403
9173.79980 0.86375
9176.79980 0.86385
9179.79980 0.86392
9182.79980 0.86443
9185.79980 0.8643
9188.79980 0.8644
9191.90039 0.86349
9194.90039 0.8631
9197.90039 0.86276
9200.90039 0.86216
9203.90039 0.8612
9206.90039 0.86062
9209.90039 0.86022
9212.90039 0.86039
9215.90039 0.85947
9219.00000 0.85863
9222.00000 0.85815
9225.00000 0.85824
9228.00000 0.85795
9231.00000 0.85745
9234.00000 0.85759
9237.00000 0.85671
9240.00000 0.85616
9243.00000 0.85592
9246.00000 0.85526
9249.00000 0.85603
9252.00000 0.85643
9255.00000 0.85717
9258.00000 0.8573
9261.00000 0.85768
9264.00000 0.85785
9267.09961 0.85848
9270.09961 0.8598
9273.09961 0.86042
9276.09961 0.86079
9279.09961 0.86068
9282.09961 0.86081
9285.09961 0.86079
9288.09961 0.85955
9291.09961 0.85905
9294.09961 0.85888
9297.09961 0.85742
9300.00000 0.8547
9303.00000 0.85175
9306.00000 0.84744
9309.00000 0.84235
9312.00000 0.83679
9315.00000 0.82944
9318.00000 0.82161
9321.00000 0.81241
9324.00000 0.80162
9327.00000 0.7893
9330.00000 0.77587
9333.00000 0.76045
9336.00000 0.74405
9339.00000 0.72596
9342.00000 0.70692
9345.00000 0.68674
9348.00000 0.6655
9350.90039 0.64334
9353.90039 0.62063
9356.90039 0.59684
9359.90039 0.57179
9362.90039 0.54693
9365.90039 0.52218
9368.90039 0.49683
9371.90039 0.47186
9374.90039 0.44672
9377.79980 0.4221
9380.79980 0.39737
9383.79980 0.37279
9386.79980 0.35007
9389.79980 0.32703
9392.79980 0.30568
9395.70020 0.28631
9398.70020 0.26731
9401.70020 0.24773
9404.70020 0.23065
9407.70020 0.21475
9410.70020 0.20029
9413.59961 0.18631
9416.59961 0.17405
9419.59961 0.16187
9422.59961 0.15041
9425.59961 0.13894
9428.50000 0.12706
9431.50000 0.1177
9434.50000 0.10995
9437.50000 0.10298
9440.50000 0.09606
9443.40039 0.09031
9446.40039 0.08525
9449.40039 0.08037
9452.40039 0.07601
9455.29980 0.07469
9458.29980 0.07156
9461.29980 0.06981
9464.29980 0.06818
9467.20020 0.06651
9470.20020 0.06212
9473.20020 0.05755
9476.09961 0.05278
9479.09961 0.04832
9482.09961 0.04456
9485.09961 0.03968
9488.00000 0.0345
9491.00000 0.03161
9494.00000 0.02722
9496.90039 0.02231
9499.90039 0.01789
9502.90039 0.01613
9505.79980 0.01449
9508.79980 0.01287
9511.79980 0.01157
9514.70020 0.00953
9517.70020 0.00929
9520.70020 0.00876
9523.59961 0.0076
9526.59961 0.00666
9529.59961 0.00625
9532.50000 0.0058
9535.50000 0.00498
9538.50000 0.00456
9541.40039 0.00398
9544.40039 0.00337
9547.29980 0.00324
9550.29980 0.00307
9553.29980 0.00275
9556.20020 0.00281
9559.20020 0.0027
9562.09961 0.00275
9565.09961 0.00284
9568.09961 0.00309
9571.00000 0.00337
9574.00000 0.00322
9576.90039 0.00312
9579.90039 0.00318
9582.90039 0.0029
9585.79980 0.00276
9588.79980 0.00249
9591.70020 0.00272
9594.70020 0.00263
9597.59961 0.0025
9600.59961 0.00206
9603.50000 0.00212
9606.50000 0.00203
9609.40039 0.00192
9612.40039 0.00202
9615.29980 0.0019
9618.29980 0.00234
9621.20020 0.0024
9624.20020 0.00215
9627.09961 0.00221
9630.09961 0.00214
9633.00000 0.00238
9636.00000 0.00179
9638.90039 0.00185
9641.90039 0.00194
9644.79980 0.00167
9647.79980 0.00176
9650.70020 0.00115
9653.70020 0.00125
9656.59961 0.00132
9659.59961 0.00175
9662.50000 0.00215
9665.50000 0.00208
9668.40039 0.00231
9671.29980 0.00208
9674.29980 0.00181
9677.20020 0.00175
9680.20020 0.00165
9683.09961 0.00158
9686.09961 0.00147
9689.00000 0.00141
9691.90039 0.00114
9694.90039 0.00074
9697.79980 0.0008
9700.79980 0.00107
9703.70020 0.00146
9706.59961 0.00156
9709.59961 0.00146
9712.50000 0.0014
9715.40039 0.00179
9718.40039 0.00189
9721.29980 0.00196
9724.29980 0.0019
9727.20020 0.00263
9730.09961 0.00241
9733.09961 0.00231
9736.00000 0.00191
9738.90039 0.00199
9741.90039 0.00226
9744.79980 0.00234
9747.70020 0.00228
9750.70020 0.00252
9753.59961 0.00246
9756.50000 0.00237
9759.40039 0.00145
9762.40039 0.00186
9765.29980 0.00128
9768.20020 0.00135
9771.20020 0.00128
9774.09961 0.00136
9777.00000 0.00146
9779.90039 0.00101
9782.90039 0.0006
9785.79980 0.00032
9788.70020 8e-05
10767.57031 0.0
