# %ECSV 0.9
# ---
# datatype:
# - {name: wavelength, unit: Angstrom, datatype: float32}
# - {name: response, datatype: float32}
# meta: !!omap
# - {band_name: CTIO_I1}
# - {group_name: IMACS}
wavelength response
6275.43018 0.0
6972.70020 0.00076
6976.00000 0.00091
6979.29980 0.00095
6982.70020 0.00131
6986.00000 0.00144
6989.29980 0.00145
6992.60010 0.00153
6995.89990 0.00162
6999.20020 0.00148
7002.50000 0.00162
7005.89990 0.00192
7009.20020 0.00224
7012.50000 0.00241
7015.79980 0.00275
7019.10010 0.0031
7022.39990 0.00334
7025.70020 0.0036
7029.00000 0.00388
7032.39990 0.00415
7035.70020 0.00429
7039.00000 0.00443
7042.29980 0.00463
7045.60010 0.00524
7048.89990 0.00605
7052.20020 0.00693
7055.50000 0.00779
7058.79980 0.00894
7062.10010 0.01013
7065.39990 0.01115
7068.70020 0.01282
7072.00000 0.01459
7075.39990 0.01677
7078.70020 0.01876
7082.00000 0.02138
7085.29980 0.02378
7088.60010 0.02683
7091.89990 0.02972
7095.20020 0.03316
7098.50000 0.03663
7101.79980 0.04059
7105.10010 0.04478
7108.39990 0.04945
7111.70020 0.05426
7115.00000 0.05948
7118.29980 0.0652
7121.60010 0.07123
7124.89990 0.07751
7128.20020 0.08432
7131.50000 0.09147
7134.79980 0.09905
7138.10010 0.10695
7141.39990 0.11534
7144.70020 0.12426
7148.00000 0.13396
7151.20020 0.14384
7154.50000 0.15399
7157.79980 0.16467
7161.10010 0.17579
7164.39990 0.18737
7167.70020 0.19945
7171.00000 0.21235
7174.29980 0.22517
7177.60010 0.23837
7180.89990 0.25233
7184.20020 0.26615
7187.50000 0.28006
7190.79980 0.29495
7194.00000 0.30991
7197.29980 0.32465
7200.60010 0.34012
7203.89990 0.35565
7207.20020 0.37094
7210.50000 0.38644
7213.79980 0.40174
7217.10010 0.41683
7220.29980 0.43132
7223.60010 0.44521
7226.89990 0.45858
7230.20020 0.47169
7233.50000 0.48428
7236.79980 0.49658
7240.00000 0.50893
7243.29980 0.52094
7246.60010 0.53202
7249.89990 0.5426
7253.20020 0.55264
7256.50000 0.56206
7259.70020 0.57096
7263.00000 0.58012
7266.29980 0.58829
7269.60010 0.59624
7272.89990 0.60301
7276.10010 0.61016
7279.39990 0.61668
7282.70020 0.62319
7286.00000 0.62938
7289.20020 0.63597
7292.50000 0.6417
7295.79980 0.64743
7299.10010 0.65292
7302.29980 0.65829
7305.60010 0.66345
7308.89990 0.66862
7312.20020 0.67419
7315.39990 0.67959
7318.70020 0.68492
7322.00000 0.6903
7325.29980 0.6956
7328.50000 0.70054
7331.79980 0.70535
7335.10010 0.71086
7338.29980 0.7154
7341.60010 0.7204
7344.89990 0.72534
7348.10010 0.73028
7351.39990 0.73447
7354.70020 0.73954
7357.89990 0.74393
7361.20020 0.74793
7364.50000 0.75197
7367.70020 0.7568
7371.00000 0.76121
7374.29980 0.76586
7377.50000 0.77057
7380.79980 0.77512
7384.10010 0.77917
7387.29980 0.78396
7390.60010 0.7885
7393.89990 0.79304
7397.10010 0.79741
7400.39990 0.80132
7403.60010 0.80511
7406.89990 0.8094
7410.20020 0.81334
7413.39990 0.8178
7416.70020 0.82228
7419.89990 0.82705
7423.20020 0.8314
7426.50000 0.83577
7429.70020 0.84006
7433.00000 0.845
7436.20020 0.84871
7439.50000 0.85255
7442.79980 0.85676
7446.00000 0.86076
7449.29980 0.86404
7452.50000 0.86823
7455.79980 0.87269
7459.00000 0.87672
7462.29980 0.88076
7465.50000 0.8849
7468.79980 0.88878
7472.00000 0.8925
7475.29980 0.89607
7478.50000 0.89911
7481.79980 0.90273
7485.00000 0.90562
7488.29980 0.90776
7491.50000 0.90992
7494.79980 0.91228
7498.00000 0.91426
7501.29980 0.91616
7504.50000 0.91859
7507.79980 0.92043
7511.00000 0.92218
7514.29980 0.92308
7517.50000 0.92452
7520.79980 0.92532
7524.00000 0.92645
7527.29980 0.92755
7530.50000 0.92874
7533.70020 0.92944
7537.00000 0.92959
7540.20020 0.93027
7543.50000 0.93018
7546.70020 0.9299
7550.00000 0.93022
7553.20020 0.93086
7556.39990 0.93084
7559.70020 0.93171
7562.89990 0.93186
7566.20020 0.93186
7569.39990 0.93166
7572.60010 0.9311
7575.89990 0.93054
7579.10010 0.93087
7582.39990 0.93119
7585.60010 0.93112
7588.79980 0.932
7592.10010 0.9324
7595.29980 0.93227
7598.50000 0.93229
7601.79980 0.93262
7605.00000 0.9328
7608.20020 0.93337
7611.50000 0.93419
7614.70020 0.93423
7617.89990 0.93524
7621.20020 0.93607
7624.39990 0.93607
7627.60010 0.93738
7630.89990 0.93864
7634.10010 0.93944
7637.29980 0.94016
7640.60010 0.94144
7643.79980 0.94182
7647.00000 0.94254
7650.20020 0.9433
7653.50000 0.94364
7656.70020 0.94417
7659.89990 0.94464
7663.20020 0.94519
7666.39990 0.94536
7669.60010 0.9461
7672.79980 0.94667
7676.10010 0.94738
7679.29980 0.94761
7682.50000 0.94817
7685.70020 0.94877
7689.00000 0.94977
7692.20020 0.9501
7695.39990 0.95101
7698.60010 0.95138
7701.79980 0.95155
7705.10010 0.95127
7708.29980 0.95168
7711.50000 0.9516
7714.70020 0.95193
7717.89990 0.95216
7721.20020 0.9526
7724.39990 0.95243
7727.60010 0.9524
7730.79980 0.95267
7734.00000 0.95296
7737.20020 0.95314
7740.50000 0.95317
7743.70020 0.95338
7746.89990 0.95374
7750.10010 0.95337
7753.29980 0.9532
7756.50000 0.95372
7759.70020 0.954
7763.00000 0.95347
7766.20020 0.95395
7769.39990 0.95449
7772.60010 0.95456
7775.79980 0.95414
7779.00000 0.95397
7782.20020 0.95345
7785.39990 0.95241
7788.70020 0.9517
7791.89990 0.95144
7795.10010 0.95132
7798.29980 0.95124
7801.50000 0.9515
7804.70020 0.95176
7807.89990 0.95131
7811.10010 0.95107
7814.29980 0.95061
7817.50000 0.95002
7820.70020 0.94947
7823.89990 0.94956
7827.10010 0.94997
7830.29980 0.94977
7833.50000 0.94953
7836.70020 0.94949
7839.89990 0.94926
7843.10010 0.94871
7846.39990 0.9495
7849.60010 0.94973
7852.79980 0.94929
7856.00000 0.94943
7859.20020 0.94956
7862.39990 0.94875
7865.60010 0.94948
7868.79980 0.95015
7871.89990 0.9506
7875.10010 0.95025
7878.29980 0.95147
7881.50000 0.95113
7884.70020 0.95125
7887.89990 0.95212
7891.10010 0.95314
7894.29980 0.95293
7897.50000 0.95304
7900.70020 0.95332
7903.89990 0.95342
7907.10010 0.95331
7910.29980 0.95416
7913.50000 0.95502
7916.70020 0.95585
7919.89990 0.95615
7923.10010 0.95642
7926.29980 0.95545
7929.39990 0.95553
7932.60010 0.95518
7935.79980 0.95465
7939.00000 0.95502
7942.20020 0.95498
7945.39990 0.95457
7948.60010 0.95402
7951.79980 0.95388
7955.00000 0.95318
7958.10010 0.95313
7961.29980 0.95269
7964.50000 0.95226
7967.70020 0.95167
7970.89990 0.95117
7974.10010 0.95121
7977.29980 0.95036
7980.39990 0.94921
7983.60010 0.94888
7986.79980 0.9484
7990.00000 0.94679
7993.20020 0.94641
7996.29980 0.94646
7999.50000 0.94493
8002.70020 0.94391
8005.89990 0.94323
8009.10010 0.94196
8012.20020 0.94099
8015.39990 0.94035
8018.60010 0.94003
8021.79980 0.93951
8025.00000 0.93919
8028.10010 0.93895
8031.29980 0.9381
8034.50000 0.93784
8037.70020 0.93798
8040.79980 0.93764
8044.00000 0.93731
8047.20020 0.93813
8050.39990 0.93788
8053.50000 0.93813
8056.70020 0.93804
8059.89990 0.93813
8063.10010 0.93791
8066.20020 0.9379
8069.39990 0.93754
8072.60010 0.93841
8075.70020 0.93815
8078.89990 0.93829
8082.10010 0.93899
8085.20020 0.93917
8088.39990 0.93891
8091.60010 0.9402
8094.79980 0.94098
8097.89990 0.94153
8101.10010 0.94294
8104.29980 0.94441
8107.39990 0.94505
8110.60010 0.94586
8113.70020 0.9461
8116.89990 0.94642
8120.10010 0.94712
8123.20020 0.9481
8126.39990 0.94866
8129.60010 0.94987
8132.70020 0.94986
8135.89990 0.95014
8139.10010 0.94931
8142.20020 0.95013
8145.39990 0.95015
8148.50000 0.95131
8151.70020 0.9522
8154.89990 0.95393
8158.00000 0.95483
8161.20020 0.956
8164.29980 0.95674
8167.50000 0.95759
8170.60010 0.95821
8173.79980 0.95883
8177.00000 0.95917
8180.10010 0.95988
8183.29980 0.95999
8186.39990 0.96051
8189.60010 0.9603
8192.70020 0.96074
8195.90039 0.96046
8199.00000 0.96038
8202.20020 0.96037
8205.40039 0.96107
8208.50000 0.96122
8211.70020 0.96159
8214.79980 0.9613
8218.00000 0.96163
8221.09961 0.96128
8224.29980 0.96137
8227.40039 0.96082
8230.59961 0.96083
8233.70020 0.95977
8236.90039 0.95828
8240.00000 0.95758
8243.20020 0.95644
8246.29980 0.95581
8249.40039 0.95529
8252.59961 0.95564
8255.70020 0.95446
8258.90039 0.95384
8262.00000 0.9527
8265.20020 0.95182
8268.29980 0.95033
8271.50000 0.94978
8274.59961 0.94883
8277.70020 0.9477
8280.90039 0.94707
8284.00000 0.94627
8287.20020 0.94528
8290.29980 0.94491
8293.50000 0.94481
8296.59961 0.94413
8299.70020 0.94423
8302.90039 0.94418
8306.00000 0.94447
8309.09961 0.94332
8312.29980 0.94299
8315.40039 0.94336
8318.59961 0.94217
8321.70020 0.94147
8324.79980 0.94217
8328.00000 0.94207
8331.09961 0.94173
8334.20020 0.94305
8337.40039 0.94376
8340.50000 0.9444
8343.59961 0.94545
8346.79980 0.94605
8349.90039 0.94685
8353.00000 0.94826
8356.20020 0.94918
8359.29980 0.9501
8362.40039 0.95119
8365.59961 0.95191
8368.70020 0.95201
8371.79980 0.95272
8374.90039 0.95319
8378.09961 0.9529
8381.20020 0.9536
8384.29980 0.95442
8387.50000 0.95485
8390.59961 0.95525
8393.70020 0.95634
8396.79980 0.95536
8400.00000 0.95576
8403.09961 0.95638
8406.20020 0.95723
8409.29980 0.95671
8412.50000 0.95789
8415.59961 0.95771
8418.70020 0.95732
8421.79980 0.95622
8425.00000 0.95652
8428.09961 0.95642
8431.20020 0.95575
8434.29980 0.95559
8437.40039 0.95568
8440.59961 0.95509
8443.70020 0.95458
8446.79980 0.95413
8449.90039 0.95393
8453.00000 0.95323
8456.20020 0.95308
8459.29980 0.95195
8462.40039 0.9513
8465.50000 0.95008
8468.59961 0.94939
8471.70020 0.94876
8474.90039 0.94847
8478.00000 0.94804
8481.09961 0.94794
8484.20020 0.94786
8487.29980 0.94778
8490.40039 0.94771
8493.50000 0.94791
8496.59961 0.94756
8499.79980 0.9476
8502.90039 0.9469
8506.00000 0.94707
8509.09961 0.94745
8512.20020 0.94811
8515.29980 0.94881
8518.40039 0.95011
8521.50000 0.95104
8524.59961 0.95084
8527.70020 0.95107
8530.90039 0.95113
8534.00000 0.95107
8537.09961 0.95122
8540.20020 0.95163
8543.29980 0.95257
8546.40039 0.95256
8549.50000 0.95345
8552.59961 0.9533
8555.70020 0.95411
8558.79980 0.95412
8561.90039 0.95491
8565.00000 0.95477
8568.09961 0.95489
8571.20020 0.95453
8574.29980 0.95481
8577.40039 0.95445
8580.50000 0.95522
8583.59961 0.95499
8586.70020 0.95598
8589.79980 0.957
8592.90039 0.95767
8596.00000 0.95697
8599.09961 0.95806
8602.20020 0.95819
8605.29980 0.95701
8608.40039 0.95708
8611.50000 0.95771
8614.59961 0.95749
8617.70020 0.95693
8620.79980 0.95662
8623.90039 0.95659
8627.00000 0.95645
8630.09961 0.95541
8633.20020 0.95349
8636.20020 0.95289
8639.29980 0.95172
8642.40039 0.9497
8645.50000 0.94921
8648.59961 0.94898
8651.70020 0.9472
8654.79980 0.94577
8657.90039 0.94474
8661.00000 0.94294
8664.09961 0.94108
8667.09961 0.9396
8670.20020 0.93836
8673.29980 0.93606
8676.40039 0.9335
8679.50000 0.93134
8682.59961 0.9288
8685.70020 0.92506
8688.79980 0.92292
8691.79980 0.92075
8694.90039 0.91815
8698.00000 0.91661
8701.09961 0.91473
8704.20020 0.91209
8707.29980 0.90912
8710.29980 0.90721
8713.40039 0.90554
8716.50000 0.9039
8719.59961 0.903
8722.70020 0.90297
8725.70020 0.90319
8728.79980 0.90328
8731.90039 0.90477
8735.00000 0.9063
8738.09961 0.90849
8741.09961 0.91123
8744.20020 0.91434
8747.29980 0.91769
8750.40039 0.92229
8753.40039 0.92682
8756.50000 0.93131
8759.59961 0.93492
8762.70020 0.93801
8765.70020 0.93951
8768.79980 0.93951
8771.90039 0.93859
8775.00000 0.93529
8778.00000 0.92947
8781.09961 0.92007
8784.20020 0.90717
8787.29980 0.88908
8790.29980 0.86614
8793.40039 0.83855
8796.50000 0.80581
8799.50000 0.76875
8802.59961 0.72872
8805.70020 0.68606
8808.70020 0.64091
8811.79980 0.59437
8814.90039 0.54804
8817.90039 0.50145
8821.00000 0.45644
8824.09961 0.41447
8827.09961 0.37411
8830.20020 0.33644
8833.29980 0.30211
8836.29980 0.27078
8839.40039 0.24217
8842.50000 0.21653
8845.50000 0.19369
8848.59961 0.17317
8851.59961 0.15452
8854.70020 0.13852
8857.79980 0.12464
8860.79980 0.11193
8863.90039 0.10062
8867.00000 0.09112
8870.00000 0.0823
8873.09961 0.07436
8876.09961 0.0678
8879.20020 0.06198
8882.20020 0.05632
8885.29980 0.05108
8888.40039 0.04683
8891.40039 0.04236
8894.50000 0.0385
8897.50000 0.03533
8900.59961 0.03322
8903.59961 0.03056
8906.70020 0.02862
8909.70020 0.02632
8912.79980 0.02438
8915.90039 0.02226
8918.90039 0.02115
8922.00000 0.02031
8925.00000 0.01977
8928.09961 0.01927
8931.09961 0.01831
8934.20020 0.01698
8937.20020 0.01536
8940.29980 0.01402
8943.29980 0.01251
8946.40039 0.01158
8949.40039 0.0109
8952.50000 0.01057
8955.50000 0.01051
8958.50000 0.01054
8961.59961 0.01061
8964.59961 0.01061
8967.70020 0.01065
8970.70020 0.01053
8973.79980 0.01031
8976.79980 0.01014
8979.90039 0.00978
8982.90039 0.0096
8986.00000 0.00933
8989.00000 0.00924
8992.00000 0.00898
8995.09961 0.00864
8998.09961 0.00835
9001.20020 0.00816
9004.20020 0.00785
9007.20020 0.0071
9010.29980 0.00722
9013.29980 0.00633
9016.40039 0.00589
9019.40039 0.00514
9022.40039 0.00473
9025.50000 0.00384
9028.50000 0.0042
9031.50000 0.00366
9034.59961 0.00356
9037.59961 0.00365
9040.70020 0.00335
9043.70020 0.00334
9046.70020 0.0038
9049.79980 0.00368
9052.79980 0.00383
9055.79980 0.00439
9058.90039 0.00374
9061.90039 0.00283
9064.90039 0.00286
9067.90039 0.00206
9071.00000 0.0014
9074.00000 0.00137
9077.00000 0.00185
9080.09961 0.00138
9083.09961 0.00162
9086.09961 0.00171
9089.20020 0.00162
9092.20020 0.00127
9095.20020 0.00129
9098.20020 0.00115
9101.29980 0.00095
9104.29980 0.00116
9107.29980 0.00118
9110.29980 0.00129
9113.40039 0.00154
9116.40039 0.00176
9119.40039 0.00179
9122.40039 0.00166
9125.50000 0.00156
9128.50000 0.00131
9131.50000 0.0011
9134.50000 0.00049
9137.50000 0.00051
9140.59961 0.00073
9143.59961 0.00087
9146.59961 0.00085
9149.59961 0.001
9152.59961 0.0011
9155.70020 0.00136
9158.70020 0.00146
9161.70020 0.0016
9164.70020 0.00182
9167.70020 0.00171
9170.79980 0.0017
9173.79980 0.00161
9176.79980 0.00147
9179.79980 0.00126
9182.79980 0.00125
9185.79980 0.00114
9188.79980 0.00112
9191.90039 0.00127
9194.90039 0.00113
9197.90039 0.0014
9200.90039 0.00127
9203.90039 0.00129
9206.90039 0.00115
9209.90039 0.00156
9212.90039 0.00129
9215.90039 0.00093
9219.00000 0.00066
9222.00000 0.00068
9225.00000 0.00054
9228.00000 0.00094
9231.00000 0.00118
9234.00000 0.00147
9237.00000 0.00146
9240.00000 0.00123
9243.00000 0.00069
9246.00000 0.00058
9249.00000 0.00097
9252.00000 0.00113
10177.20020 0.0
