# %ECSV 0.9
# ---
# datatype:
# - {name: wavelength, unit: Angstrom, datatype: float32}
# - {name: response, datatype: float32}
# meta: !!omap
# - {band_name: sdss_i}
# - {group_name: MagIC}
wavelength response
5400.00000 0.0
6000.00000 2e-05
6005.00000 4e-05
6010.00000 2e-05
6015.00000 4e-05
6020.00000 2e-05
6025.00000 4e-05
6030.00000 6e-05
6035.00000 7e-05
6040.00000 2e-05
6045.00000 3e-05
6050.00000 1e-05
6055.00000 0.0
6060.00000 1e-05
6065.00000 0.0
6070.00000 1e-05
6075.00000 4e-05
6080.00000 4e-05
6085.00000 4e-05
6090.00000 4e-05
6095.00000 5e-05
6100.00000 2e-05
6105.00000 0.00011
6110.00000 4e-05
6115.00000 6e-05
6120.00000 7e-05
6125.00000 0.00012
6130.00000 9e-05
6135.00000 0.00012
6140.00000 0.00013
6145.00000 0.00014
6150.00000 4e-05
6155.00000 0.00016
6160.00000 0.00014
6165.00000 0.00014
6170.00000 0.00017
6175.00000 0.00015
6180.00000 0.00016
6185.00000 0.00016
6190.00000 0.00018
6195.00000 0.00016
6200.00000 0.00021
6205.00000 0.00023
6210.00000 0.00018
6215.00000 0.00021
6220.00000 0.00023
6225.00000 0.00022
6230.00000 0.00027
6235.00000 0.00024
6240.00000 0.00026
6245.00000 0.00024
6250.00000 0.00029
6255.00000 0.00025
6260.00000 0.00022
6265.00000 0.00031
6270.00000 0.00032
6275.00000 0.00033
6280.00000 0.00028
6285.00000 0.00034
6290.00000 0.00033
6295.00000 0.00035
6300.00000 0.00035
6305.00000 0.00039
6310.00000 0.00039
6315.00000 0.00041
6320.00000 0.00041
6325.00000 0.00035
6330.00000 0.00044
6335.00000 0.00052
6340.00000 0.00051
6345.00000 0.0005
6350.00000 0.0005
6355.00000 0.00052
6360.00000 0.00057
6365.00000 0.00058
6370.00000 0.00069
6375.00000 0.00069
6380.00000 0.00072
6385.00000 0.00076
6390.00000 0.00079
6395.00000 0.00078
6400.00000 0.00079
6405.00000 0.00086
6410.00000 0.00091
6415.00000 0.00089
6420.00000 0.0009
6425.00000 0.00092
6430.00000 0.00104
6435.00000 0.00103
6440.00000 0.00107
6445.00000 0.00111
6450.00000 0.00112
6455.00000 0.00115
6460.00000 0.0012
6465.00000 0.00127
6470.00000 0.0013
6475.00000 0.00142
6480.00000 0.0015
6485.00000 0.00155
6490.00000 0.00166
6495.00000 0.00178
6500.00000 0.00179
6505.00000 0.00193
6510.00000 0.0021
6515.00000 0.0021
6520.00000 0.00222
6525.00000 0.00242
6530.00000 0.00248
6535.00000 0.00264
6540.00000 0.00273
6545.00000 0.00289
6550.00000 0.00307
6555.00000 0.00321
6560.00000 0.00335
6565.00000 0.00347
6570.00000 0.00364
6575.00000 0.00383
6580.00000 0.00409
6585.00000 0.0043
6590.00000 0.00457
6595.00000 0.00482
6600.00000 0.0052
6605.00000 0.00551
6610.00000 0.00596
6615.00000 0.00629
6620.00000 0.00677
6625.00000 0.00728
6630.00000 0.00788
6635.00000 0.00851
6640.00000 0.00926
6645.00000 0.00998
6650.00000 0.01084
6655.00000 0.01172
6660.00000 0.01275
6665.00000 0.01382
6670.00000 0.01502
6675.00000 0.0162
6680.00000 0.01749
6685.00000 0.01894
6690.00000 0.02054
6695.00000 0.02213
6700.00000 0.02401
6705.00000 0.02594
6710.00000 0.02804
6715.00000 0.03029
6720.00000 0.03277
6725.00000 0.03552
6730.00000 0.03838
6735.00000 0.04165
6740.00000 0.04511
6745.00000 0.04894
6750.00000 0.05309
6755.00000 0.05754
6760.00000 0.06245
6765.00000 0.06787
6770.00000 0.07346
6775.00000 0.07964
6780.00000 0.08637
6785.00000 0.0935
6790.00000 0.10135
6795.00000 0.10962
6800.00000 0.11833
6805.00000 0.12778
6810.00000 0.13769
6815.00000 0.14813
6820.00000 0.15895
6825.00000 0.17011
6830.00000 0.18197
6835.00000 0.19403
6840.00000 0.20642
6845.00000 0.21961
6850.00000 0.23273
6855.00000 0.2466
6860.00000 0.26078
6865.00000 0.27523
6870.00000 0.29011
6875.00000 0.30517
6880.00000 0.32057
6885.00000 0.33674
6890.00000 0.35302
6895.00000 0.36974
6900.00000 0.38723
6905.00000 0.4045
6910.00000 0.4228
6915.00000 0.44124
6920.00000 0.45987
6925.00000 0.47902
6930.00000 0.49814
6935.00000 0.517
6940.00000 0.53602
6945.00000 0.55485
6950.00000 0.57332
6955.00000 0.59157
6960.00000 0.60901
6965.00000 0.62634
6970.00000 0.64274
6975.00000 0.65807
6980.00000 0.67235
6985.00000 0.68657
6990.00000 0.6996
6995.00000 0.71143
7000.00000 0.72274
7005.00000 0.73313
7010.00000 0.74259
7015.00000 0.75203
7020.00000 0.76018
7025.00000 0.76789
7030.00000 0.77555
7035.00000 0.78244
7040.00000 0.78947
7045.00000 0.79591
7050.00000 0.80225
7055.00000 0.80858
7060.00000 0.81395
7065.00000 0.81931
7070.00000 0.82521
7075.00000 0.83146
7080.00000 0.83684
7085.00000 0.84262
7090.00000 0.84808
7095.00000 0.85352
7100.00000 0.85862
7105.00000 0.86294
7110.00000 0.86791
7115.00000 0.87309
7120.00000 0.87624
7125.00000 0.88055
7130.00000 0.88365
7135.00000 0.88629
7140.00000 0.88936
7145.00000 0.89236
7150.00000 0.89419
7155.00000 0.89627
7160.00000 0.89811
7165.00000 0.89945
7170.00000 0.90088
7175.00000 0.90259
7180.00000 0.90397
7185.00000 0.90547
7190.00000 0.90747
7195.00000 0.90933
7200.00000 0.91118
7205.00000 0.91338
7210.00000 0.91534
7215.00000 0.91799
7220.00000 0.92073
7225.00000 0.92311
7230.00000 0.92661
7235.00000 0.9298
7240.00000 0.93221
7245.00000 0.93591
7250.00000 0.93901
7255.00000 0.94264
7260.00000 0.94678
7265.00000 0.94865
7270.00000 0.95147
7275.00000 0.95427
7280.00000 0.95616
7285.00000 0.9575
7290.00000 0.9589
7295.00000 0.9594
7300.00000 0.95921
7305.00000 0.96013
7310.00000 0.95856
7315.00000 0.9581
7320.00000 0.95715
7325.00000 0.95511
7330.00000 0.9535
7335.00000 0.95135
7340.00000 0.94881
7345.00000 0.94733
7350.00000 0.94444
7355.00000 0.94333
7360.00000 0.94195
7365.00000 0.94023
7370.00000 0.93927
7375.00000 0.93878
7380.00000 0.93843
7385.00000 0.93836
7390.00000 0.9386
7395.00000 0.93895
7400.00000 0.93912
7405.00000 0.94182
7410.00000 0.94293
7415.00000 0.9447
7420.00000 0.94648
7425.00000 0.94916
7430.00000 0.95228
7435.00000 0.95425
7440.00000 0.95647
7445.00000 0.95936
7450.00000 0.96158
7455.00000 0.96352
7460.00000 0.96531
7465.00000 0.9669
7470.00000 0.96721
7475.00000 0.96861
7480.00000 0.96852
7485.00000 0.9679
7490.00000 0.96725
7495.00000 0.96603
7500.00000 0.96466
7505.00000 0.96311
7510.00000 0.96074
7515.00000 0.95808
7520.00000 0.95567
7525.00000 0.95291
7530.00000 0.9501
7535.00000 0.9478
7540.00000 0.94408
7545.00000 0.94175
7550.00000 0.93961
7555.00000 0.9369
7560.00000 0.93589
7565.00000 0.93415
7570.00000 0.93246
7575.00000 0.93189
7580.00000 0.93214
7585.00000 0.9311
7590.00000 0.93178
7595.00000 0.93296
7600.00000 0.93466
7605.00000 0.93613
7610.00000 0.93866
7615.00000 0.94061
7620.00000 0.94373
7625.00000 0.94605
7630.00000 0.94929
7635.00000 0.95301
7640.00000 0.95577
7645.00000 0.95848
7650.00000 0.96161
7655.00000 0.96382
7660.00000 0.9667
7665.00000 0.96886
7670.00000 0.97092
7675.00000 0.97097
7680.00000 0.97242
7685.00000 0.97311
7690.00000 0.97176
7695.00000 0.97225
7700.00000 0.97026
7705.00000 0.96879
7710.00000 0.9671
7715.00000 0.96452
7720.00000 0.96219
7725.00000 0.95829
7730.00000 0.95514
7735.00000 0.95193
7740.00000 0.94813
7745.00000 0.94403
7750.00000 0.94071
7755.00000 0.93669
7760.00000 0.93331
7765.00000 0.93013
7770.00000 0.92727
7775.00000 0.92444
7780.00000 0.92333
7785.00000 0.92077
7790.00000 0.91981
7795.00000 0.91823
7800.00000 0.9175
7805.00000 0.91739
7810.00000 0.91765
7815.00000 0.91772
7820.00000 0.91886
7825.00000 0.92101
7830.00000 0.92287
7835.00000 0.92453
7840.00000 0.927
7845.00000 0.92969
7850.00000 0.93304
7855.00000 0.93588
7860.00000 0.93869
7865.00000 0.94234
7870.00000 0.94563
7875.00000 0.94888
7880.00000 0.95186
7885.00000 0.95438
7890.00000 0.95673
7895.00000 0.95876
7900.00000 0.96049
7905.00000 0.96197
7910.00000 0.96288
7915.00000 0.96387
7920.00000 0.96304
7925.00000 0.96351
7930.00000 0.96331
7935.00000 0.96271
7940.00000 0.96075
7945.00000 0.9592
7950.00000 0.95705
7955.00000 0.9548
7960.00000 0.95235
7965.00000 0.94943
7970.00000 0.94799
7975.00000 0.94501
7980.00000 0.94252
7985.00000 0.93934
7990.00000 0.93702
7995.00000 0.93495
8000.00000 0.93262
8005.00000 0.93135
8010.00000 0.92943
8015.00000 0.92907
8020.00000 0.9278
8025.00000 0.92691
8030.00000 0.92802
8035.00000 0.92766
8040.00000 0.92688
8045.00000 0.92964
8050.00000 0.92948
8055.00000 0.93206
8060.00000 0.93329
8065.00000 0.93501
8070.00000 0.93747
8075.00000 0.9381
8080.00000 0.94154
8085.00000 0.94427
8090.00000 0.94522
8095.00000 0.94674
8100.00000 0.95078
8105.00000 0.95319
8110.00000 0.95215
8115.00000 0.95469
8120.00000 0.95535
8125.00000 0.95684
8130.00000 0.95723
8135.00000 0.95675
8140.00000 0.9571
8145.00000 0.95754
8150.00000 0.95615
8155.00000 0.95419
8160.00000 0.95319
8165.00000 0.95185
8170.00000 0.94893
8175.00000 0.94755
8180.00000 0.94435
8185.00000 0.94227
8190.00000 0.94031
8195.00000 0.93703
8200.00000 0.93393
8205.00000 0.93138
8210.00000 0.92729
8215.00000 0.92428
8220.00000 0.91977
8225.00000 0.9156
8230.00000 0.91133
8235.00000 0.90708
8240.00000 0.90244
8245.00000 0.89782
8250.00000 0.89346
8255.00000 0.88997
8260.00000 0.88612
8265.00000 0.88382
8270.00000 0.88066
8275.00000 0.87952
8280.00000 0.87968
8285.00000 0.8806
8290.00000 0.88306
8295.00000 0.88719
8300.00000 0.8924
8305.00000 0.89902
8310.00000 0.90387
8315.00000 0.90907
8320.00000 0.91163
8325.00000 0.90898
8330.00000 0.89477
8335.00000 0.8705
8340.00000 0.82934
8345.00000 0.77166
8350.00000 0.70037
8355.00000 0.61569
8360.00000 0.52494
8365.00000 0.43895
8370.00000 0.35724
8375.00000 0.28696
8380.00000 0.22716
8385.00000 0.17837
8390.00000 0.14
8395.00000 0.1095
8400.00000 0.08591
8405.00000 0.06809
8410.00000 0.05359
8415.00000 0.04267
8420.00000 0.03405
8425.00000 0.02738
8430.00000 0.0222
8435.00000 0.01789
8440.00000 0.01458
8445.00000 0.01187
8450.00000 0.00988
8455.00000 0.00805
8460.00000 0.00673
8465.00000 0.0056
8470.00000 0.00465
8475.00000 0.0039
8480.00000 0.0033
8485.00000 0.00279
8490.00000 0.00232
8495.00000 0.00204
8500.00000 0.00172
8505.00000 0.00147
8510.00000 0.00126
8515.00000 0.0011
8520.00000 0.00091
8525.00000 0.00083
8530.00000 0.00072
8535.00000 0.0006
8540.00000 0.00054
8545.00000 0.00048
8550.00000 0.00043
8555.00000 0.00037
8560.00000 0.00033
8565.00000 0.00027
8570.00000 0.00027
8575.00000 0.00023
8580.00000 0.0002
8585.00000 0.00018
8590.00000 0.00017
8595.00000 0.00015
8600.00000 0.00014
8605.00000 0.00012
8610.00000 0.00013
8615.00000 0.0001
8620.00000 0.00011
8625.00000 0.0001
8630.00000 7e-05
8635.00000 8e-05
8640.00000 6e-05
8645.00000 6e-05
8650.00000 7e-05
8655.00000 4e-05
8660.00000 5e-05
8665.00000 5e-05
8670.00000 6e-05
8675.00000 2e-05
8680.00000 3e-05
8685.00000 2e-05
8690.00000 5e-05
8695.00000 2e-05
8700.00000 6e-05
8705.00000 5e-05
8710.00000 2e-05
8715.00000 6e-05
8720.00000 4e-05
8725.00000 5e-05
8730.00000 4e-05
8735.00000 5e-05
8740.00000 3e-05
8745.00000 4e-05
8750.00000 4e-05
8755.00000 3e-05
8760.00000 4e-05
8765.00000 7e-05
8770.00000 6e-05
8775.00000 3e-05
8780.00000 4e-05
8785.00000 6e-05
8790.00000 4e-05
8795.00000 0.0035
8800.00000 0.00331
8805.00000 0.00346
8810.00000 0.00373
8815.00000 0.00332
8820.00000 0.00365
8825.00000 0.00337
8830.00000 0.00286
8835.00000 0.00331
8840.00000 0.00316
8845.00000 0.00319
8850.00000 0.00326
8855.00000 0.00325
8860.00000 0.00325
8865.00000 0.00318
8870.00000 0.00332
8875.00000 0.00296
8880.00000 0.00316
8885.00000 0.00332
8890.00000 0.00312
8895.00000 0.00341
8900.00000 0.00298
8905.00000 0.00311
8910.00000 0.00335
8915.00000 0.0034
8920.00000 0.00358
8925.00000 0.00338
8930.00000 0.00286
8935.00000 0.00321
8940.00000 0.00313
8945.00000 0.00344
8950.00000 0.00367
8955.00000 0.00316
8960.00000 0.00374
8965.00000 0.003
8970.00000 0.00326
8975.00000 0.00318
8980.00000 0.00381
8985.00000 0.00333
8990.00000 0.00356
8995.00000 0.00371
9000.00000 0.00344
9900.00000 0.0
