# %ECSV 0.9
# ---
# datatype:
# - {name: wavelength, unit: Angstrom, datatype: float32}
# - {name: response, datatype: float32}
# meta: !!omap
# - {band_name: zJ}
# - {group_name: MMIRS}
wavelength response
8950.00000 0.0
8960.00000 4.08e-08
8970.00000 0.0
8980.00000 1.667e-05
8990.00000 8.333e-05
9000.00000 3.333e-05
9010.00000 6.667e-05
9020.00000 8.333e-05
9030.00000 0.0001
9040.00000 0.0001
9050.00000 5e-05
9060.00000 8.333e-05
9070.00000 5e-05
9080.00000 6.667e-05
9090.00000 6.667e-05
9100.00000 8.333e-05
9110.00000 0.0001
9120.00000 0.0001
9130.00000 0.0001
9140.00000 0.0001833
9150.00000 0.0002333
9160.00000 0.00035
9170.00000 0.0005333
9180.00000 0.0007667
9190.00000 0.001083
9200.00000 0.0015
9210.00000 0.002
9220.00000 0.002483
9230.00000 0.003033
9240.00000 0.003533
9250.00000 0.003967
9260.00000 0.0043
9270.00000 0.004583
9280.00000 0.004883
9290.00000 0.00525
9300.00000 0.005833
9310.00000 0.006683
9320.00000 0.008183
9330.00000 0.01065
9340.00000 0.01448
9350.00000 0.02047
9360.00000 0.03042
9370.00000 0.04578
9380.00000 0.0685
9390.00000 0.1008
9400.00000 0.1398
9410.00000 0.183
9420.00000 0.2301
9430.00000 0.276
9440.00000 0.3163
9450.00000 0.3512
9460.00000 0.3813
9470.00000 0.4073
9480.00000 0.4367
9490.00000 0.4737
9500.00000 0.5158
9510.00000 0.5674
9520.00000 0.6226
9530.00000 0.6724
9540.00000 0.7166
9550.00000 0.7521
9560.00000 0.7754
9570.00000 0.788
9580.00000 0.792
9590.00000 0.7904
9600.00000 0.7867
9610.00000 0.783
9620.00000 0.7812
9630.00000 0.7816
9640.00000 0.7841
9650.00000 0.7879
9660.00000 0.7923
9670.00000 0.7968
9680.00000 0.8016
9690.00000 0.8054
9700.00000 0.809
9710.00000 0.8126
9720.00000 0.8153
9730.00000 0.8182
9740.00000 0.8208
9750.00000 0.823
9760.00000 0.8251
9770.00000 0.8266
9780.00000 0.8276
9790.00000 0.8281
9800.00000 0.828
9810.00000 0.8276
9820.00000 0.8268
9830.00000 0.8258
9840.00000 0.8252
9850.00000 0.8246
9860.00000 0.8244
9870.00000 0.8246
9880.00000 0.825
9890.00000 0.8261
9900.00000 0.8276
9910.00000 0.8292
9920.00000 0.8313
9930.00000 0.8334
9940.00000 0.8356
9950.00000 0.838
9960.00000 0.8406
9970.00000 0.8428
9980.00000 0.8449
9990.00000 0.8474
10000.00000 0.8494
10010.00000 0.8514
10020.00000 0.8535
10030.00000 0.8549
10040.00000 0.8561
10050.00000 0.8569
10060.00000 0.8571
10070.00000 0.8573
10080.00000 0.8569
10090.00000 0.8561
10100.00000 0.8555
10110.00000 0.8547
10120.00000 0.8537
10130.00000 0.8532
10140.00000 0.8528
10150.00000 0.8524
10160.00000 0.8526
10170.00000 0.8532
10180.00000 0.8539
10190.00000 0.8552
10200.00000 0.8563
10210.00000 0.8585
10220.00000 0.8601
10230.00000 0.8614
10240.00000 0.8634
10250.00000 0.8651
10260.00000 0.8666
10270.00000 0.8682
10280.00000 0.8695
10290.00000 0.8705
10300.00000 0.8716
10310.00000 0.8723
10320.00000 0.8729
10330.00000 0.8733
10340.00000 0.8735
10350.00000 0.8736
10360.00000 0.8733
10370.00000 0.873
10380.00000 0.8723
10390.00000 0.8717
10400.00000 0.8706
10410.00000 0.8695
10420.00000 0.8683
10430.00000 0.8668
10440.00000 0.8655
10450.00000 0.8639
10460.00000 0.8622
10470.00000 0.8611
10480.00000 0.8594
10490.00000 0.8582
10500.00000 0.8571
10510.00000 0.856
10520.00000 0.8552
10530.00000 0.8546
10540.00000 0.854
10550.00000 0.8538
10560.00000 0.8536
10570.00000 0.8536
10580.00000 0.854
10590.00000 0.8544
10600.00000 0.8549
10610.00000 0.8557
10620.00000 0.8566
10630.00000 0.8573
10640.00000 0.8586
10650.00000 0.8598
10660.00000 0.861
10670.00000 0.8624
10680.00000 0.8636
10690.00000 0.8652
10700.00000 0.8666
10710.00000 0.8679
10720.00000 0.8696
10730.00000 0.8709
10740.00000 0.8721
10750.00000 0.8737
10760.00000 0.8747
10770.00000 0.8759
10780.00000 0.8771
10790.00000 0.878
10800.00000 0.879
10810.00000 0.8797
10820.00000 0.8803
10830.00000 0.881
10840.00000 0.8815
10850.00000 0.8818
10860.00000 0.8822
10870.00000 0.8822
10880.00000 0.8821
10890.00000 0.8821
10900.00000 0.882
10910.00000 0.8817
10920.00000 0.8815
10930.00000 0.881
10940.00000 0.8804
10950.00000 0.8801
10960.00000 0.8793
10970.00000 0.8787
10980.00000 0.8783
10990.00000 0.8778
11000.00000 0.8774
11010.00000 0.877
11020.00000 0.8766
11030.00000 0.8766
11040.00000 0.8762
11050.00000 0.8765
11060.00000 0.8768
11070.00000 0.877
11080.00000 0.8776
11090.00000 0.8783
11100.00000 0.8792
11110.00000 0.88
11120.00000 0.8813
11130.00000 0.8826
11140.00000 0.884
11150.00000 0.8857
11160.00000 0.8871
11170.00000 0.8891
11180.00000 0.8908
11190.00000 0.8927
11200.00000 0.8949
11210.00000 0.8965
11220.00000 0.8986
11230.00000 0.9007
11240.00000 0.9024
11250.00000 0.9045
11260.00000 0.9062
11270.00000 0.9077
11280.00000 0.9096
11290.00000 0.9108
11300.00000 0.9122
11310.00000 0.9135
11320.00000 0.9143
11330.00000 0.9152
11340.00000 0.916
11350.00000 0.9165
11360.00000 0.9171
11370.00000 0.9175
11380.00000 0.9175
11390.00000 0.9179
11400.00000 0.9181
11410.00000 0.9179
11420.00000 0.918
11430.00000 0.918
11440.00000 0.9178
11450.00000 0.9181
11460.00000 0.9181
11470.00000 0.9181
11480.00000 0.9183
11490.00000 0.9183
11500.00000 0.9186
11510.00000 0.9188
11520.00000 0.919
11530.00000 0.9194
11540.00000 0.9197
11550.00000 0.92
11560.00000 0.9204
11570.00000 0.9208
11580.00000 0.9212
11590.00000 0.9216
11600.00000 0.922
11610.00000 0.9224
11620.00000 0.9227
11630.00000 0.9231
11640.00000 0.9235
11650.00000 0.9239
11660.00000 0.9241
11670.00000 0.9242
11680.00000 0.9246
11690.00000 0.9247
11700.00000 0.925
11710.00000 0.9253
11720.00000 0.9253
11730.00000 0.9257
11740.00000 0.9256
11750.00000 0.9257
11760.00000 0.9262
11770.00000 0.9261
11780.00000 0.9264
11790.00000 0.9268
11800.00000 0.9268
11810.00000 0.9273
11820.00000 0.9275
11830.00000 0.9277
11840.00000 0.9282
11850.00000 0.9286
11860.00000 0.929
11870.00000 0.9294
11880.00000 0.9299
11890.00000 0.9301
11900.00000 0.9307
11910.00000 0.9312
11920.00000 0.9316
11930.00000 0.9321
11940.00000 0.9324
11950.00000 0.9327
11960.00000 0.933
11970.00000 0.9333
11980.00000 0.9335
11990.00000 0.9335
12000.00000 0.9336
12010.00000 0.9336
12020.00000 0.9338
12030.00000 0.9335
12040.00000 0.9335
12050.00000 0.9333
12060.00000 0.9331
12070.00000 0.933
12080.00000 0.9327
12090.00000 0.9323
12100.00000 0.9322
12110.00000 0.9318
12120.00000 0.9317
12130.00000 0.9315
12140.00000 0.9313
12150.00000 0.9309
12160.00000 0.9308
12170.00000 0.9305
12180.00000 0.9303
12190.00000 0.9302
12200.00000 0.93
12210.00000 0.9298
12220.00000 0.9297
12230.00000 0.9295
12240.00000 0.9297
12250.00000 0.9296
12260.00000 0.9296
12270.00000 0.9298
12280.00000 0.9298
12290.00000 0.93
12300.00000 0.9304
12310.00000 0.9306
12320.00000 0.9311
12330.00000 0.9317
12340.00000 0.9321
12350.00000 0.9326
12360.00000 0.9335
12370.00000 0.934
12380.00000 0.9348
12390.00000 0.9358
12400.00000 0.9364
12410.00000 0.9373
12420.00000 0.9383
12430.00000 0.939
12440.00000 0.94
12450.00000 0.9409
12460.00000 0.9417
12470.00000 0.9425
12480.00000 0.9431
12490.00000 0.9439
12500.00000 0.9446
12510.00000 0.945
12520.00000 0.9457
12530.00000 0.946
12540.00000 0.9463
12550.00000 0.9467
12560.00000 0.9469
12570.00000 0.9471
12580.00000 0.9473
12590.00000 0.9473
12600.00000 0.9472
12610.00000 0.9474
12620.00000 0.9473
12630.00000 0.9471
12640.00000 0.947
12650.00000 0.9468
12660.00000 0.9466
12670.00000 0.9465
12680.00000 0.9461
12690.00000 0.946
12700.00000 0.9458
12710.00000 0.9452
12720.00000 0.9451
12730.00000 0.9446
12740.00000 0.9442
12750.00000 0.9439
12760.00000 0.9433
12770.00000 0.9429
12780.00000 0.9424
12790.00000 0.9417
12800.00000 0.9413
12810.00000 0.9407
12820.00000 0.9402
12830.00000 0.9396
12840.00000 0.9391
12850.00000 0.9385
12860.00000 0.9379
12870.00000 0.9375
12880.00000 0.9368
12890.00000 0.9366
12900.00000 0.9363
12910.00000 0.9359
12920.00000 0.9357
12930.00000 0.9354
12940.00000 0.9352
12950.00000 0.9353
12960.00000 0.9352
12970.00000 0.9355
12980.00000 0.9356
12990.00000 0.9357
13000.00000 0.9363
13010.00000 0.9366
13020.00000 0.9371
13030.00000 0.9377
13040.00000 0.9381
13050.00000 0.9389
13060.00000 0.9397
13070.00000 0.9405
13080.00000 0.9413
13090.00000 0.9423
13100.00000 0.9428
13110.00000 0.9438
13120.00000 0.9449
13130.00000 0.9456
13140.00000 0.9466
13150.00000 0.9477
13160.00000 0.9483
13170.00000 0.9493
13180.00000 0.9498
13190.00000 0.9506
13200.00000 0.9514
13210.00000 0.9518
13220.00000 0.9523
13230.00000 0.9529
13240.00000 0.9529
13250.00000 0.9535
13260.00000 0.9536
13270.00000 0.9535
13280.00000 0.9535
13290.00000 0.9535
13300.00000 0.9532
13310.00000 0.9532
13320.00000 0.9529
13330.00000 0.9525
13340.00000 0.9522
13350.00000 0.9516
13360.00000 0.9512
13370.00000 0.9509
13380.00000 0.9506
13390.00000 0.9501
13400.00000 0.9499
13410.00000 0.9494
13420.00000 0.9491
13430.00000 0.9489
13440.00000 0.9485
13450.00000 0.9485
13460.00000 0.9484
13470.00000 0.9483
13480.00000 0.9484
13490.00000 0.9485
13500.00000 0.9485
13510.00000 0.9488
13520.00000 0.949
13530.00000 0.9493
13540.00000 0.9496
13550.00000 0.9499
13560.00000 0.9506
13570.00000 0.951
13580.00000 0.9513
13590.00000 0.9518
13600.00000 0.9523
13610.00000 0.9526
13620.00000 0.9534
13630.00000 0.9539
13640.00000 0.9543
13650.00000 0.9548
13660.00000 0.9551
13670.00000 0.9555
13680.00000 0.9562
13690.00000 0.9563
13700.00000 0.9568
13710.00000 0.9573
13720.00000 0.9573
13730.00000 0.9578
13740.00000 0.958
13750.00000 0.9582
13760.00000 0.9585
13770.00000 0.9586
13780.00000 0.9586
13790.00000 0.9587
13800.00000 0.9588
13810.00000 0.9588
13820.00000 0.9589
13830.00000 0.9587
13840.00000 0.9584
13850.00000 0.9582
13860.00000 0.958
13870.00000 0.9575
13880.00000 0.9571
13890.00000 0.9565
13900.00000 0.9561
13910.00000 0.9554
13920.00000 0.9544
13930.00000 0.9539
13940.00000 0.953
13950.00000 0.9518
13960.00000 0.9511
13970.00000 0.9499
13980.00000 0.9487
13990.00000 0.9477
14000.00000 0.9462
14010.00000 0.945
14020.00000 0.9437
14030.00000 0.9423
14040.00000 0.9411
14050.00000 0.9397
14060.00000 0.9381
14070.00000 0.9366
14080.00000 0.9353
14090.00000 0.9338
14100.00000 0.9324
14110.00000 0.9311
14120.00000 0.9298
14130.00000 0.9286
14140.00000 0.9273
14150.00000 0.9263
14160.00000 0.9254
14170.00000 0.9245
14180.00000 0.9238
14190.00000 0.9234
14200.00000 0.9226
14210.00000 0.9225
14220.00000 0.9224
14230.00000 0.9223
14240.00000 0.9225
14250.00000 0.9229
14260.00000 0.9234
14270.00000 0.9242
14280.00000 0.925
14290.00000 0.9258
14300.00000 0.927
14310.00000 0.9282
14320.00000 0.9294
14330.00000 0.9307
14340.00000 0.9321
14350.00000 0.9334
14360.00000 0.935
14370.00000 0.9363
14380.00000 0.9374
14390.00000 0.9388
14400.00000 0.9396
14410.00000 0.9405
14420.00000 0.9414
14430.00000 0.9417
14440.00000 0.9423
14450.00000 0.9424
14460.00000 0.9423
14470.00000 0.9422
14480.00000 0.9415
14490.00000 0.941
14500.00000 0.9402
14510.00000 0.939
14520.00000 0.9381
14530.00000 0.9369
14540.00000 0.9355
14550.00000 0.9343
14560.00000 0.933
14570.00000 0.9314
14580.00000 0.9302
14590.00000 0.9291
14600.00000 0.9278
14610.00000 0.9268
14620.00000 0.926
14630.00000 0.9249
14640.00000 0.9244
14650.00000 0.9238
14660.00000 0.9234
14670.00000 0.9233
14680.00000 0.9229
14690.00000 0.9228
14700.00000 0.9229
14710.00000 0.9228
14720.00000 0.9228
14730.00000 0.9228
14740.00000 0.9226
14750.00000 0.9226
14760.00000 0.9221
14770.00000 0.9213
14780.00000 0.9205
14790.00000 0.9191
14800.00000 0.9171
14810.00000 0.9149
14820.00000 0.9115
14830.00000 0.9072
14840.00000 0.9024
14850.00000 0.896
14860.00000 0.8877
14870.00000 0.8784
14880.00000 0.8658
14890.00000 0.8508
14900.00000 0.834
14910.00000 0.8136
14920.00000 0.7897
14930.00000 0.7625
14940.00000 0.7308
14950.00000 0.6946
14960.00000 0.6559
14970.00000 0.6157
14980.00000 0.5719
14990.00000 0.5262
15000.00000 0.4807
15010.00000 0.4334
15020.00000 0.3867
15030.00000 0.3459
15040.00000 0.3059
15050.00000 0.2673
15060.00000 0.2341
15070.00000 0.2021
15080.00000 0.1735
15090.00000 0.15
15100.00000 0.129
15110.00000 0.1104
15120.00000 0.09465
15130.00000 0.08077
15140.00000 0.06848
15150.00000 0.05855
15160.00000 0.0503
15170.00000 0.04302
15180.00000 0.03678
15190.00000 0.03148
15200.00000 0.02692
15210.00000 0.02303
15220.00000 0.02
15230.00000 0.01727
15240.00000 0.0149
15250.00000 0.01293
15260.00000 0.01118
15270.00000 0.009667
15280.00000 0.008483
15290.00000 0.007417
15300.00000 0.006483
15310.00000 0.005667
15320.00000 0.004983
15330.00000 0.004367
15340.00000 0.003833
15350.00000 0.0034
15360.00000 0.003
15370.00000 0.002667
15380.00000 0.0024
15390.00000 0.002083
15400.00000 0.001867
15410.00000 0.001683
15420.00000 0.0015
15430.00000 0.001333
15440.00000 0.001217
15450.00000 0.001067
15460.00000 0.00095
15470.00000 0.0008833
15480.00000 0.0008
15490.00000 0.0007167
15500.00000 0.0006667
15510.00000 0.0005667
15520.00000 0.0005667
15530.00000 0.0004667
15540.00000 0.0004667
15550.00000 0.0003667
15560.00000 0.0003667
15570.00000 0.0003667
15580.00000 0.0003333
15590.00000 0.0002667
15600.00000 0.0003
15610.00000 0.0002667
15620.00000 0.00025
15630.00000 0.0002
15640.00000 0.0002
15650.00000 0.0001667
15660.00000 0.0002
15670.00000 0.0001667
15680.00000 0.0001333
15690.00000 0.0001167
15700.00000 0.0001167
15710.00000 0.0001167
15720.00000 0.0001
15730.00000 0.0001
15740.00000 0.0001
15750.00000 0.0001
15760.00000 0.0001
15770.00000 0.0001
15780.00000 0.0001
15790.00000 6.667e-05
15800.00000 8.333e-05
15810.00000 5e-05
15820.00000 0.0001
15830.00000 6.667e-05
15840.00000 5e-05
15850.00000 3.333e-05
15860.00000 1.667e-05
15870.00000 5e-05
15880.00000 5e-05
15890.00000 0.0
15900.00000 3.333e-05
15910.00000 0.0
15920.00000 0.0
15930.00000 3.333e-05
15940.00000 1.667e-05
15950.00000 0.0
15960.00000 0.0
15970.00000 1.667e-05
15980.00000 1.667e-05
15990.00000 0.0
