# %ECSV 0.9
# ---
# datatype:
# - {name: wavelength, unit: Angstrom, datatype: float32}
# - {name: response, datatype: float32}
# meta: !!omap
# - {band_name: z}
# - {group_name: Omega2000}
wavelength response
7326.00000 0.0
8140.00000 0.0001284
8141.00000 0.00010788
8142.00000 0.00016562
8143.00000 0.00031334
8144.00000 0.0002471
8145.00000 0.00028675
8146.00000 0.00028055
8147.00000 0.0002911
8148.00000 0.00018718
8149.00000 0.00031617
8150.00000 0.00030526
8151.00000 0.00051761
8152.00000 0.00050368
8153.00000 0.00054297
8154.00000 0.00051938
8155.00000 0.00038494
8156.00000 0.00056546
8157.00000 0.00072925
8158.00000 0.00041609
8159.00000 0.00061265
8160.00000 0.00072082
8161.00000 0.00106882
8162.00000 0.00069767
8163.00000 0.00088522
8164.00000 0.00097007
8165.00000 0.00105524
8166.00000 0.00139998
8167.00000 0.00145168
8168.00000 0.00136394
8169.00000 0.00162034
8170.00000 0.00170295
8171.00000 0.00176074
8172.00000 0.00192733
8173.00000 0.00215162
8174.00000 0.00242472
8175.00000 0.00258244
8176.00000 0.002679
8177.00000 0.00306992
8178.00000 0.00352239
8179.00000 0.00384098
8180.00000 0.00420775
8181.00000 0.00456215
8182.00000 0.00517015
8183.00000 0.00568722
8184.00000 0.0062489
8185.00000 0.00729049
8186.00000 0.00773582
8187.00000 0.00846625
8188.00000 0.00946967
8189.00000 0.0104143
8190.00000 0.0116839
8191.00000 0.0133005
8192.00000 0.0152442
8193.00000 0.016601
8194.00000 0.0185281
8195.00000 0.0208267
8196.00000 0.0234095
8197.00000 0.0269144
8198.00000 0.0304194
8199.00000 0.034807
8200.00000 0.0376397
8201.00000 0.0437704
8202.00000 0.0493728
8203.00000 0.0557238
8204.00000 0.0630991
8205.00000 0.0712649
8206.00000 0.0825149
8207.00000 0.0950028
8208.00000 0.109157
8209.00000 0.124915
8210.00000 0.144569
8211.00000 0.166478
8212.00000 0.192184
8213.00000 0.216185
8214.00000 0.246325
8215.00000 0.279772
8216.00000 0.31861
8217.00000 0.354057
8218.00000 0.399131
8219.00000 0.442324
8220.00000 0.491835
8221.00000 0.541192
8222.00000 0.591281
8223.00000 0.635588
8224.00000 0.683169
8225.00000 0.7205
8226.00000 0.752743
8227.00000 0.784517
8228.00000 0.802911
8229.00000 0.821305
8230.00000 0.834018
8231.00000 0.844566
8232.00000 0.850223
8233.00000 0.848174
8234.00000 0.85207
8235.00000 0.847785
8236.00000 0.843956
8237.00000 0.827777
8238.00000 0.828024
8239.00000 0.830218
8240.00000 0.819593
8241.00000 0.811627
8242.00000 0.804867
8243.00000 0.799551
8244.00000 0.799966
8245.00000 0.794817
8246.00000 0.791153
8247.00000 0.792979
8248.00000 0.79137
8249.00000 0.791252
8250.00000 0.790549
8251.00000 0.793466
8252.00000 0.797236
8253.00000 0.793758
8254.00000 0.797642
8255.00000 0.805139
8256.00000 0.806539
8257.00000 0.817001
8258.00000 0.814648
8259.00000 0.82222
8260.00000 0.826097
8261.00000 0.826453
8262.00000 0.834449
8263.00000 0.844371
8264.00000 0.848216
8265.00000 0.855861
8266.00000 0.862743
8267.00000 0.869266
8268.00000 0.870823
8269.00000 0.870318
8270.00000 0.882638
8271.00000 0.886707
8272.00000 0.886268
8273.00000 0.894559
8274.00000 0.899968
8275.00000 0.901768
8276.00000 0.910859
8277.00000 0.909255
8278.00000 0.914697
8279.00000 0.922741
8280.00000 0.919458
8281.00000 0.914297
8282.00000 0.921712
8283.00000 0.931143
8284.00000 0.930754
8285.00000 0.931245
8286.00000 0.934402
8287.00000 0.937959
8288.00000 0.938974
8289.00000 0.939739
8290.00000 0.939953
8291.00000 0.934624
8292.00000 0.946101
8293.00000 0.944212
8294.00000 0.946863
8295.00000 0.937205
8296.00000 0.942705
8297.00000 0.943848
8298.00000 0.939132
8299.00000 0.939202
8300.00000 0.944635
8301.00000 0.946
8302.00000 0.949723
8303.00000 0.941178
8304.00000 0.938704
8305.00000 0.946005
8306.00000 0.94579
8307.00000 0.937408
8308.00000 0.948503
8309.00000 0.937752
8310.00000 0.945209
8311.00000 0.943041
8312.00000 0.941737
8313.00000 0.940096
8314.00000 0.947725
8315.00000 0.938481
8316.00000 0.942334
8317.00000 0.937047
8318.00000 0.939262
8319.00000 0.941158
8320.00000 0.934063
8321.00000 0.933871
8322.00000 0.934333
8323.00000 0.938292
8324.00000 0.934057
8325.00000 0.938669
8326.00000 0.932628
8327.00000 0.938287
8328.00000 0.933494
8329.00000 0.932556
8330.00000 0.929625
8331.00000 0.934391
8332.00000 0.93774
8333.00000 0.931385
8334.00000 0.93441
8335.00000 0.931311
8336.00000 0.936562
8337.00000 0.928768
8338.00000 0.926609
8339.00000 0.930682
8340.00000 0.929361
8341.00000 0.926799
8342.00000 0.924889
8343.00000 0.924584
8344.00000 0.930102
8345.00000 0.923624
8346.00000 0.92806
8347.00000 0.924557
8348.00000 0.929435
8349.00000 0.92885
8350.00000 0.926376
8351.00000 0.924424
8352.00000 0.923825
8353.00000 0.924071
8354.00000 0.931571
8355.00000 0.928124
8356.00000 0.926993
8357.00000 0.927621
8358.00000 0.921377
8359.00000 0.931409
8360.00000 0.93063
8361.00000 0.923945
8362.00000 0.926272
8363.00000 0.930896
8364.00000 0.932149
8365.00000 0.928673
8366.00000 0.92952
8367.00000 0.932575
8368.00000 0.934722
8369.00000 0.936618
8370.00000 0.929486
8371.00000 0.932872
8372.00000 0.933247
8373.00000 0.933797
8374.00000 0.938132
8375.00000 0.937493
8376.00000 0.939191
8377.00000 0.932443
8378.00000 0.940402
8379.00000 0.942457
8380.00000 0.933709
8381.00000 0.947765
8382.00000 0.934746
8383.00000 0.93966
8384.00000 0.936765
8385.00000 0.946342
8386.00000 0.938188
8387.00000 0.940113
8388.00000 0.945808
8389.00000 0.945491
8390.00000 0.948357
8391.00000 0.945989
8392.00000 0.947827
8393.00000 0.951746
8394.00000 0.945839
8395.00000 0.945626
8396.00000 0.945686
8397.00000 0.954682
8398.00000 0.95483
8399.00000 0.948976
8400.00000 0.954822
8401.00000 0.953473
8402.00000 0.950427
8403.00000 0.954844
8404.00000 0.952347
8405.00000 0.945512
8406.00000 0.950234
8407.00000 0.949633
8408.00000 0.954063
8409.00000 0.957186
8410.00000 0.950381
8411.00000 0.952611
8412.00000 0.947756
8413.00000 0.949905
8414.00000 0.947472
8415.00000 0.955393
8416.00000 0.950164
8417.00000 0.946875
8418.00000 0.945062
8419.00000 0.933701
8420.00000 0.944962
8421.00000 0.944929
8422.00000 0.939625
8423.00000 0.942266
8424.00000 0.940183
8425.00000 0.942747
8426.00000 0.938499
8427.00000 0.9314
8428.00000 0.942396
8429.00000 0.932632
8430.00000 0.922054
8431.00000 0.935152
8432.00000 0.924922
8433.00000 0.931182
8434.00000 0.927001
8435.00000 0.920508
8436.00000 0.936176
8437.00000 0.924609
8438.00000 0.918644
8439.00000 0.923004
8440.00000 0.923815
8441.00000 0.918041
8442.00000 0.922379
8443.00000 0.928419
8444.00000 0.924191
8445.00000 0.920447
8446.00000 0.918246
8447.00000 0.919963
8448.00000 0.912309
8449.00000 0.915064
8450.00000 0.921558
8451.00000 0.915474
8452.00000 0.916198
8453.00000 0.914648
8454.00000 0.916377
8455.00000 0.917542
8456.00000 0.921321
8457.00000 0.904546
8458.00000 0.921781
8459.00000 0.914836
8460.00000 0.918661
8461.00000 0.91815
8462.00000 0.922985
8463.00000 0.922707
8464.00000 0.914627
8465.00000 0.907011
8466.00000 0.913048
8467.00000 0.915122
8468.00000 0.929892
8469.00000 0.91684
8470.00000 0.923503
8471.00000 0.928106
8472.00000 0.925168
8473.00000 0.917845
8474.00000 0.919608
8475.00000 0.920434
8476.00000 0.923503
8477.00000 0.926775
8478.00000 0.927376
8479.00000 0.919753
8480.00000 0.928903
8481.00000 0.920809
8482.00000 0.916852
8483.00000 0.92073
8484.00000 0.930055
8485.00000 0.927151
8486.00000 0.937585
8487.00000 0.943097
8488.00000 0.929491
8489.00000 0.930681
8490.00000 0.937277
8491.00000 0.926301
8492.00000 0.935178
8493.00000 0.936289
8494.00000 0.936513
8495.00000 0.934877
8496.00000 0.941263
8497.00000 0.934789
8498.00000 0.937858
8499.00000 0.944825
8500.00000 0.940548
8501.00000 0.937108
8502.00000 0.942162
8503.00000 0.946965
8504.00000 0.944655
8505.00000 0.941969
8506.00000 0.933048
8507.00000 0.935393
8508.00000 0.938954
8509.00000 0.941344
8510.00000 0.931582
8511.00000 0.937752
8512.00000 0.953294
8513.00000 0.946121
8514.00000 0.93984
8515.00000 0.945268
8516.00000 0.943993
8517.00000 0.932373
8518.00000 0.937128
8519.00000 0.948305
8520.00000 0.936784
8521.00000 0.936325
8522.00000 0.932031
8523.00000 0.940199
8524.00000 0.93482
8525.00000 0.933297
8526.00000 0.941989
8527.00000 0.952676
8528.00000 0.939512
8529.00000 0.938382
8530.00000 0.93719
8531.00000 0.923667
8532.00000 0.924401
8533.00000 0.93036
8534.00000 0.92119
8535.00000 0.928398
8536.00000 0.933009
8537.00000 0.913248
8538.00000 0.925433
8539.00000 0.931992
8540.00000 0.929701
8541.00000 0.926665
8542.00000 0.919405
8543.00000 0.925302
8544.00000 0.913114
8545.00000 0.917901
8546.00000 0.912544
8547.00000 0.92082
8548.00000 0.915374
8549.00000 0.918381
8550.00000 0.910599
8551.00000 0.902001
8552.00000 0.907519
8553.00000 0.912327
8554.00000 0.906397
8555.00000 0.914102
8556.00000 0.905212
8557.00000 0.906458
8558.00000 0.912851
8559.00000 0.899869
8560.00000 0.911074
8561.00000 0.916709
8562.00000 0.903817
8563.00000 0.897463
8564.00000 0.899964
8565.00000 0.894644
8566.00000 0.888104
8567.00000 0.905786
8568.00000 0.907329
8569.00000 0.907941
8570.00000 0.89299
8571.00000 0.898767
8572.00000 0.904343
8573.00000 0.897836
8574.00000 0.906595
8575.00000 0.89548
8576.00000 0.896146
8577.00000 0.893009
8578.00000 0.901027
8579.00000 0.900695
8580.00000 0.896528
8581.00000 0.895863
8582.00000 0.911953
8583.00000 0.898472
8584.00000 0.900888
8585.00000 0.904304
8586.00000 0.914716
8587.00000 0.894836
8588.00000 0.903362
8589.00000 0.900174
8590.00000 0.895231
8591.00000 0.904739
8592.00000 0.903955
8593.00000 0.895287
8594.00000 0.917178
8595.00000 0.899318
8596.00000 0.908975
8597.00000 0.894192
8598.00000 0.908321
8599.00000 0.906659
8600.00000 0.904966
8601.00000 0.916306
8602.00000 0.906749
8603.00000 0.91306
8604.00000 0.90994
8605.00000 0.902398
8606.00000 0.927687
8607.00000 0.91419
8608.00000 0.922155
8609.00000 0.910248
8610.00000 0.910525
8611.00000 0.92817
8612.00000 0.899711
8613.00000 0.908541
8614.00000 0.916392
8615.00000 0.910621
8616.00000 0.911691
8617.00000 0.918133
8618.00000 0.916418
8619.00000 0.910246
8620.00000 0.925823
8621.00000 0.906413
8622.00000 0.916644
8623.00000 0.910173
8624.00000 0.917463
8625.00000 0.918535
8626.00000 0.927814
8627.00000 0.917351
8628.00000 0.925399
8629.00000 0.934063
8630.00000 0.930215
8631.00000 0.935098
8632.00000 0.931123
8633.00000 0.920989
8634.00000 0.919088
8635.00000 0.925931
8636.00000 0.936964
8637.00000 0.936229
8638.00000 0.936605
8639.00000 0.935308
8640.00000 0.937342
8641.00000 0.929182
8642.00000 0.920523
8643.00000 0.954656
8644.00000 0.949122
8645.00000 0.938687
8646.00000 0.928772
8647.00000 0.938726
8648.00000 0.957242
8649.00000 0.963456
8650.00000 0.935785
8651.00000 0.939931
8652.00000 0.938955
8653.00000 0.948519
8654.00000 0.934455
8655.00000 0.936027
8656.00000 0.957392
8657.00000 0.941551
8658.00000 0.937018
8659.00000 0.94965
8660.00000 0.953075
8661.00000 0.953487
8662.00000 0.941478
8663.00000 0.955061
8664.00000 0.951599
8665.00000 0.964024
8666.00000 0.954534
8667.00000 0.936734
8668.00000 0.94238
8669.00000 0.963938
8670.00000 0.945029
8671.00000 0.942851
8672.00000 0.950185
8673.00000 0.950353
8674.00000 0.966409
8675.00000 0.942566
8676.00000 0.95372
8677.00000 0.944697
8678.00000 0.952723
8679.00000 0.95951
8680.00000 0.953333
8681.00000 0.932693
8682.00000 0.947653
8683.00000 0.947035
8684.00000 0.919038
8685.00000 0.941644
8686.00000 0.925126
8687.00000 0.941969
8688.00000 0.927442
8689.00000 0.943746
8690.00000 0.919118
8691.00000 0.931769
8692.00000 0.924529
8693.00000 0.941551
8694.00000 0.929282
8695.00000 0.912566
8696.00000 0.925238
8697.00000 0.921222
8698.00000 0.916833
8699.00000 0.918633
8700.00000 0.941419
8701.00000 0.925916
8702.00000 0.916993
8703.00000 0.922598
8704.00000 0.93472
8705.00000 0.930748
8706.00000 0.908196
8707.00000 0.887989
8708.00000 0.927188
8709.00000 0.89354
8710.00000 0.926103
8711.00000 0.91336
8712.00000 0.896996
8713.00000 0.921813
8714.00000 0.919175
8715.00000 0.93366
8716.00000 0.913978
8717.00000 0.927607
8718.00000 0.916575
8719.00000 0.918317
8720.00000 0.91409
8721.00000 0.904624
8722.00000 0.91639
8723.00000 0.914489
8724.00000 0.902058
8725.00000 0.920819
8726.00000 0.912228
8727.00000 0.932255
8728.00000 0.895915
8729.00000 0.898983
8730.00000 0.919675
8731.00000 0.906325
8732.00000 0.942478
8733.00000 0.904993
8734.00000 0.904165
8735.00000 0.90613
8736.00000 0.909852
8737.00000 0.900798
8738.00000 0.920645
8739.00000 0.905779
8740.00000 0.910875
8741.00000 0.912884
8742.00000 0.905939
8743.00000 0.934677
8744.00000 0.916235
8745.00000 0.927029
8746.00000 0.934909
8747.00000 0.90476
8748.00000 0.907474
8749.00000 0.941577
8750.00000 0.926309
8751.00000 0.926004
8752.00000 0.926207
8753.00000 0.925469
8754.00000 0.925617
8755.00000 0.926271
8756.00000 0.925267
8757.00000 0.925027
8758.00000 0.926245
8759.00000 0.924793
8760.00000 0.92538
8761.00000 0.925496
8762.00000 0.925464
8763.00000 0.925139
8764.00000 0.924637
8765.00000 0.925164
8766.00000 0.92579
8767.00000 0.924122
8768.00000 0.924255
8769.00000 0.925469
8770.00000 0.923735
8771.00000 0.923954
8772.00000 0.92465
8773.00000 0.923825
8774.00000 0.924178
8775.00000 0.924099
8776.00000 0.924102
8777.00000 0.924319
8778.00000 0.92347
8779.00000 0.923577
8780.00000 0.923685
8781.00000 0.923049
8782.00000 0.924339
8783.00000 0.92366
8784.00000 0.92193
8785.00000 0.924088
8786.00000 0.923083
8787.00000 0.922563
8788.00000 0.923239
8789.00000 0.92285
8790.00000 0.923604
8791.00000 0.923181
8792.00000 0.922251
8793.00000 0.923223
8794.00000 0.923082
8795.00000 0.922485
8796.00000 0.923803
8797.00000 0.92274
8798.00000 0.922761
8799.00000 0.922891
8800.00000 0.922974
8801.00000 0.923331
8802.00000 0.92296
8803.00000 0.923099
8804.00000 0.92344
8805.00000 0.922281
8806.00000 0.923877
8807.00000 0.924179
8808.00000 0.922403
8809.00000 0.923361
8810.00000 0.924314
8811.00000 0.922882
8812.00000 0.923239
8813.00000 0.924583
8814.00000 0.923035
8815.00000 0.923464
8816.00000 0.923899
8817.00000 0.924926
8818.00000 0.924402
8819.00000 0.923731
8820.00000 0.924442
8821.00000 0.925445
8822.00000 0.923834
8823.00000 0.925178
8824.00000 0.925393
8825.00000 0.924454
8826.00000 0.925572
8827.00000 0.925472
8828.00000 0.925421
8829.00000 0.925625
8830.00000 0.925692
8831.00000 0.927142
8832.00000 0.925994
8833.00000 0.925727
8834.00000 0.927799
8835.00000 0.927369
8836.00000 0.926954
8837.00000 0.927885
8838.00000 0.928169
8839.00000 0.928106
8840.00000 0.928262
8841.00000 0.928239
8842.00000 0.929456
8843.00000 0.929069
8844.00000 0.929091
8845.00000 0.92996
8846.00000 0.929586
8847.00000 0.930382
8848.00000 0.931106
8849.00000 0.930885
8850.00000 0.931238
8851.00000 0.931362
8852.00000 0.931642
8853.00000 0.93224
8854.00000 0.932294
8855.00000 0.933235
8856.00000 0.933311
8857.00000 0.932914
8858.00000 0.934121
8859.00000 0.935106
8860.00000 0.933465
8861.00000 0.935038
8862.00000 0.93593
8863.00000 0.935482
8864.00000 0.935689
8865.00000 0.936447
8866.00000 0.936362
8867.00000 0.937238
8868.00000 0.937043
8869.00000 0.937432
8870.00000 0.938322
8871.00000 0.937716
8872.00000 0.93819
8873.00000 0.939252
8874.00000 0.939056
8875.00000 0.939468
8876.00000 0.93961
8877.00000 0.939943
8878.00000 0.940122
8879.00000 0.940385
8880.00000 0.94164
8881.00000 0.941061
8882.00000 0.941672
8883.00000 0.94253
8884.00000 0.941759
8885.00000 0.94181
8886.00000 0.943833
8887.00000 0.942813
8888.00000 0.943136
8889.00000 0.944081
8890.00000 0.943663
8891.00000 0.944354
8892.00000 0.944347
8893.00000 0.944359
8894.00000 0.946289
8895.00000 0.944995
8896.00000 0.945157
8897.00000 0.946249
8898.00000 0.9453
8899.00000 0.946864
8900.00000 0.946857
8901.00000 0.94593
8902.00000 0.946888
8903.00000 0.947427
8904.00000 0.946425
8905.00000 0.947368
8906.00000 0.947533
8907.00000 0.947608
8908.00000 0.947833
8909.00000 0.9476
8910.00000 0.94904
8911.00000 0.948511
8912.00000 0.948193
8913.00000 0.949373
8914.00000 0.94922
8915.00000 0.947942
8916.00000 0.948948
8917.00000 0.948526
8918.00000 0.949449
8919.00000 0.949858
8920.00000 0.949174
8921.00000 0.950102
8922.00000 0.949669
8923.00000 0.949862
8924.00000 0.950906
8925.00000 0.949816
8926.00000 0.949882
8927.00000 0.950949
8928.00000 0.950502
8929.00000 0.950563
8930.00000 0.950732
8931.00000 0.950515
8932.00000 0.95081
8933.00000 0.950913
8934.00000 0.951289
8935.00000 0.951323
8936.00000 0.950946
8937.00000 0.950861
8938.00000 0.952102
8939.00000 0.951158
8940.00000 0.950413
8941.00000 0.951834
8942.00000 0.951964
8943.00000 0.951865
8944.00000 0.951371
8945.00000 0.952868
8946.00000 0.952315
8947.00000 0.951279
8948.00000 0.952362
8949.00000 0.95272
8950.00000 0.951649
8951.00000 0.951959
8952.00000 0.952663
8953.00000 0.951798
8954.00000 0.952431
8955.00000 0.952691
8956.00000 0.951944
8957.00000 0.95253
8958.00000 0.952906
8959.00000 0.952895
8960.00000 0.952633
8961.00000 0.951432
8962.00000 0.9529
8963.00000 0.952574
8964.00000 0.951828
8965.00000 0.953169
8966.00000 0.952518
8967.00000 0.952199
8968.00000 0.953033
8969.00000 0.953136
8970.00000 0.952228
8971.00000 0.952348
8972.00000 0.953315
8973.00000 0.951557
8974.00000 0.950829
8975.00000 0.952438
8976.00000 0.95267
8977.00000 0.951413
8978.00000 0.951496
8979.00000 0.952457
8980.00000 0.951499
8981.00000 0.951309
8982.00000 0.952112
8983.00000 0.951201
8984.00000 0.951744
8985.00000 0.951537
8986.00000 0.951734
8987.00000 0.951237
8988.00000 0.951068
8989.00000 0.950737
8990.00000 0.95174
8991.00000 0.950473
8992.00000 0.949432
8993.00000 0.950867
8994.00000 0.949907
8995.00000 0.950077
8996.00000 0.949033
8997.00000 0.949164
8998.00000 0.949673
8999.00000 0.948468
9000.00000 0.948556
9001.00000 0.94899
9002.00000 0.94737
9003.00000 0.94719
9004.00000 0.94841
9005.00000 0.947036
9006.00000 0.946198
9007.00000 0.94748
9008.00000 0.946345
9009.00000 0.945556
9010.00000 0.945913
9011.00000 0.945802
9012.00000 0.945268
9013.00000 0.943568
9014.00000 0.945222
9015.00000 0.944293
9016.00000 0.943519
9017.00000 0.944336
9018.00000 0.943374
9019.00000 0.942402
9020.00000 0.942836
9021.00000 0.942172
9022.00000 0.941976
9023.00000 0.941505
9024.00000 0.941127
9025.00000 0.941301
9026.00000 0.940426
9027.00000 0.939399
9028.00000 0.940159
9029.00000 0.939635
9030.00000 0.939358
9031.00000 0.94014
9032.00000 0.938386
9033.00000 0.937627
9034.00000 0.938112
9035.00000 0.937629
9036.00000 0.937506
9037.00000 0.936765
9038.00000 0.937129
9039.00000 0.937265
9040.00000 0.935147
9041.00000 0.936924
9042.00000 0.936443
9043.00000 0.934655
9044.00000 0.935486
9045.00000 0.935595
9046.00000 0.93464
9047.00000 0.934508
9048.00000 0.93428
9049.00000 0.93414
9050.00000 0.934506
9051.00000 0.933547
9052.00000 0.933572
9053.00000 0.933065
9054.00000 0.93293
9055.00000 0.933697
9056.00000 0.933233
9057.00000 0.932295
9058.00000 0.932446
9059.00000 0.932351
9060.00000 0.932286
9061.00000 0.932092
9062.00000 0.931952
9063.00000 0.932171
9064.00000 0.931337
9065.00000 0.931942
9066.00000 0.932648
9067.00000 0.931367
9068.00000 0.930975
9069.00000 0.931365
9070.00000 0.931946
9071.00000 0.931734
9072.00000 0.931406
9073.00000 0.93127
9074.00000 0.931255
9075.00000 0.931241
9076.00000 0.931814
9077.00000 0.931833
9078.00000 0.930402
9079.00000 0.931536
9080.00000 0.931427
9081.00000 0.930713
9082.00000 0.930906
9083.00000 0.930935
9084.00000 0.930668
9085.00000 0.930804
9086.00000 0.931277
9087.00000 0.930942
9088.00000 0.930423
9089.00000 0.929969
9090.00000 0.931012
9091.00000 0.9309
9092.00000 0.92995
9093.00000 0.930173
9094.00000 0.92997
9095.00000 0.929516
9096.00000 0.930303
9097.00000 0.930347
9098.00000 0.929098
9099.00000 0.929056
9100.00000 0.929313
9101.00000 0.930077
9102.00000 0.929268
9103.00000 0.928592
9104.00000 0.928447
9105.00000 0.928725
9106.00000 0.927944
9107.00000 0.928499
9108.00000 0.92836
9109.00000 0.926838
9110.00000 0.92813
9111.00000 0.92805
9112.00000 0.927143
9113.00000 0.925543
9114.00000 0.927491
9115.00000 0.926552
9116.00000 0.92382
9117.00000 0.926198
9118.00000 0.925322
9119.00000 0.924457
9120.00000 0.92413
9121.00000 0.924937
9122.00000 0.922834
9123.00000 0.922748
9124.00000 0.923528
9125.00000 0.921558
9126.00000 0.921961
9127.00000 0.922039
9128.00000 0.920882
9129.00000 0.921097
9130.00000 0.919914
9131.00000 0.920351
9132.00000 0.920352
9133.00000 0.918787
9134.00000 0.918522
9135.00000 0.918593
9136.00000 0.917629
9137.00000 0.918067
9138.00000 0.917039
9139.00000 0.916319
9140.00000 0.916311
9141.00000 0.915623
9142.00000 0.915706
9143.00000 0.915892
9144.00000 0.913726
9145.00000 0.914053
9146.00000 0.914203
9147.00000 0.913328
9148.00000 0.913719
9149.00000 0.912284
9150.00000 0.912393
9151.00000 0.913391
9152.00000 0.911471
9153.00000 0.911672
9154.00000 0.91116
9155.00000 0.910078
9156.00000 0.91151
9157.00000 0.910624
9158.00000 0.909427
9159.00000 0.910398
9160.00000 0.909712
9161.00000 0.909888
9162.00000 0.910292
9163.00000 0.909073
9164.00000 0.909745
9165.00000 0.908811
9166.00000 0.909047
9167.00000 0.910365
9168.00000 0.908665
9169.00000 0.908519
9170.00000 0.909424
9171.00000 0.908984
9172.00000 0.909241
9173.00000 0.909884
9174.00000 0.908958
9175.00000 0.909716
9176.00000 0.909992
9177.00000 0.909622
9178.00000 0.910356
9179.00000 0.909807
9180.00000 0.910773
9181.00000 0.911018
9182.00000 0.911184
9183.00000 0.911506
9184.00000 0.911783
9185.00000 0.911188
9186.00000 0.912908
9187.00000 0.913046
9188.00000 0.912134
9189.00000 0.913755
9190.00000 0.913833
9191.00000 0.913426
9192.00000 0.915071
9193.00000 0.915362
9194.00000 0.915479
9195.00000 0.915868
9196.00000 0.916233
9197.00000 0.917036
9198.00000 0.918182
9199.00000 0.917904
9200.00000 0.918527
9201.00000 0.918858
9202.00000 0.919442
9203.00000 0.920448
9204.00000 0.921088
9205.00000 0.920808
9206.00000 0.921266
9207.00000 0.923119
9208.00000 0.923747
9209.00000 0.923053
9210.00000 0.923754
9211.00000 0.925135
9212.00000 0.925277
9213.00000 0.925978
9214.00000 0.926946
9215.00000 0.926696
9216.00000 0.926579
9217.00000 0.927823
9218.00000 0.929111
9219.00000 0.928791
9220.00000 0.928921
9221.00000 0.929633
9222.00000 0.930704
9223.00000 0.930573
9224.00000 0.931533
9225.00000 0.931258
9226.00000 0.931077
9227.00000 0.93252
9228.00000 0.933057
9229.00000 0.932504
9230.00000 0.933433
9231.00000 0.933438
9232.00000 0.934203
9233.00000 0.93539
9234.00000 0.934792
9235.00000 0.935304
9236.00000 0.934567
9237.00000 0.935061
9238.00000 0.936409
9239.00000 0.93619
9240.00000 0.935051
9241.00000 0.935917
9242.00000 0.935873
9243.00000 0.935865
9244.00000 0.936727
9245.00000 0.935712
9246.00000 0.936402
9247.00000 0.936652
9248.00000 0.936681
9249.00000 0.937469
9250.00000 0.93614
9251.00000 0.935309
9252.00000 0.937189
9253.00000 0.93615
9254.00000 0.936068
9255.00000 0.936739
9256.00000 0.935576
9257.00000 0.936348
9258.00000 0.936099
9259.00000 0.935567
9260.00000 0.936135
9261.00000 0.934567
9262.00000 0.934168
9263.00000 0.936094
9264.00000 0.934436
9265.00000 0.934362
9266.00000 0.935278
9267.00000 0.933305
9268.00000 0.934002
9269.00000 0.934588
9270.00000 0.932757
9271.00000 0.93358
9272.00000 0.93259
9273.00000 0.932205
9274.00000 0.93236
9275.00000 0.932515
9276.00000 0.932056
9277.00000 0.931444
9278.00000 0.932138
9279.00000 0.93229
9280.00000 0.931549
9281.00000 0.930855
9282.00000 0.930902
9283.00000 0.931073
9284.00000 0.931375
9285.00000 0.931237
9286.00000 0.929582
9287.00000 0.930482
9288.00000 0.930386
9289.00000 0.930079
9290.00000 0.930939
9291.00000 0.929046
9292.00000 0.929302
9293.00000 0.930094
9294.00000 0.92955
9295.00000 0.930189
9296.00000 0.929979
9297.00000 0.929401
9298.00000 0.930516
9299.00000 0.930019
9300.00000 0.930063
9301.00000 0.930848
9302.00000 0.929865
9303.00000 0.930561
9304.00000 0.931223
9305.00000 0.930517
9306.00000 0.93067
9307.00000 0.930849
9308.00000 0.930793
9309.00000 0.9317
9310.00000 0.931902
9311.00000 0.9317
9312.00000 0.931839
9313.00000 0.93222
9314.00000 0.932148
9315.00000 0.933463
9316.00000 0.932356
9317.00000 0.932873
9318.00000 0.934537
9319.00000 0.933488
9320.00000 0.934849
9321.00000 0.934825
9322.00000 0.934105
9323.00000 0.936128
9324.00000 0.935305
9325.00000 0.935812
9326.00000 0.936692
9327.00000 0.936381
9328.00000 0.937134
9329.00000 0.937362
9330.00000 0.937507
9331.00000 0.939003
9332.00000 0.937866
9333.00000 0.937661
9334.00000 0.939884
9335.00000 0.939834
9336.00000 0.939674
9337.00000 0.940215
9338.00000 0.940323
9339.00000 0.94105
9340.00000 0.941031
9341.00000 0.941298
9342.00000 0.941872
9343.00000 0.942079
9344.00000 0.942091
9345.00000 0.943749
9346.00000 0.942757
9347.00000 0.942827
9348.00000 0.943482
9349.00000 0.943115
9350.00000 0.944086
9351.00000 0.944034
9352.00000 0.944234
9353.00000 0.94444
9354.00000 0.94429
9355.00000 0.945031
9356.00000 0.945319
9357.00000 0.944443
9358.00000 0.945165
9359.00000 0.945827
9360.00000 0.945533
9361.00000 0.94569
9362.00000 0.945282
9363.00000 0.94543
9364.00000 0.946124
9365.00000 0.945476
9366.00000 0.94623
9367.00000 0.946339
9368.00000 0.945342
9369.00000 0.945908
9370.00000 0.945769
9371.00000 0.946051
9372.00000 0.945978
9373.00000 0.944228
9374.00000 0.945054
9375.00000 0.946101
9376.00000 0.944715
9377.00000 0.945334
9378.00000 0.944738
9379.00000 0.943567
9380.00000 0.945512
9381.00000 0.944382
9382.00000 0.943255
9383.00000 0.944559
9384.00000 0.943518
9385.00000 0.943803
9386.00000 0.943869
9387.00000 0.943066
9388.00000 0.943293
9389.00000 0.942262
9390.00000 0.943234
9391.00000 0.943617
9392.00000 0.941758
9393.00000 0.942067
9394.00000 0.942061
9395.00000 0.941318
9396.00000 0.941828
9397.00000 0.941517
9398.00000 0.940925
9399.00000 0.941583
9400.00000 0.940789
9401.00000 0.940789
9402.00000 0.940669
9403.00000 0.939844
9404.00000 0.939875
9405.00000 0.940579
9406.00000 0.940218
9407.00000 0.940038
9408.00000 0.939647
9409.00000 0.93918
9410.00000 0.939334
9411.00000 0.940142
9412.00000 0.939683
9413.00000 0.938989
9414.00000 0.939353
9415.00000 0.939598
9416.00000 0.939477
9417.00000 0.938924
9418.00000 0.939344
9419.00000 0.938957
9420.00000 0.938414
9421.00000 0.940049
9422.00000 0.939564
9423.00000 0.939432
9424.00000 0.93995
9425.00000 0.938371
9426.00000 0.940228
9427.00000 0.940445
9428.00000 0.939988
9429.00000 0.940161
9430.00000 0.939942
9431.00000 0.941424
9432.00000 0.941158
9433.00000 0.940574
9434.00000 0.940868
9435.00000 0.941942
9436.00000 0.940874
9437.00000 0.942263
9438.00000 0.942428
9439.00000 0.941429
9440.00000 0.94298
9441.00000 0.942731
9442.00000 0.943469
9443.00000 0.943489
9444.00000 0.942861
9445.00000 0.943744
9446.00000 0.944761
9447.00000 0.944234
9448.00000 0.944782
9449.00000 0.94489
9450.00000 0.945219
9451.00000 0.945968
9452.00000 0.946172
9453.00000 0.946272
9454.00000 0.946675
9455.00000 0.946525
9456.00000 0.947636
9457.00000 0.947705
9458.00000 0.947562
9459.00000 0.947986
9460.00000 0.948117
9461.00000 0.948055
9462.00000 0.949515
9463.00000 0.94915
9464.00000 0.948772
9465.00000 0.949511
9466.00000 0.949173
9467.00000 0.9509
9468.00000 0.950347
9469.00000 0.949229
9470.00000 0.950593
9471.00000 0.950578
9472.00000 0.950639
9473.00000 0.951938
9474.00000 0.951123
9475.00000 0.950628
9476.00000 0.951307
9477.00000 0.951364
9478.00000 0.952095
9479.00000 0.95121
9480.00000 0.950925
9481.00000 0.951295
9482.00000 0.9512
9483.00000 0.951266
9484.00000 0.951322
9485.00000 0.95154
9486.00000 0.9512
9487.00000 0.951507
9488.00000 0.951189
9489.00000 0.951051
9490.00000 0.950303
9491.00000 0.950568
9492.00000 0.951121
9493.00000 0.949753
9494.00000 0.949973
9495.00000 0.949196
9496.00000 0.949334
9497.00000 0.950418
9498.00000 0.949983
9499.00000 0.94887
9500.00000 0.948637
9501.00000 0.948311
9502.00000 0.948789
9503.00000 0.948367
9504.00000 0.947773
9505.00000 0.947875
9506.00000 0.947083
9507.00000 0.946888
9508.00000 0.947859
9509.00000 0.945291
9510.00000 0.94553
9511.00000 0.946082
9512.00000 0.945407
9513.00000 0.944658
9514.00000 0.945103
9515.00000 0.94431
9516.00000 0.943758
9517.00000 0.944188
9518.00000 0.943105
9519.00000 0.943983
9520.00000 0.943204
9521.00000 0.94129
9522.00000 0.942212
9523.00000 0.942252
9524.00000 0.94285
9525.00000 0.941692
9526.00000 0.941239
9527.00000 0.941443
9528.00000 0.941001
9529.00000 0.941014
9530.00000 0.941043
9531.00000 0.939535
9532.00000 0.939359
9533.00000 0.940009
9534.00000 0.939849
9535.00000 0.93944
9536.00000 0.939129
9537.00000 0.939183
9538.00000 0.940299
9539.00000 0.939191
9540.00000 0.938514
9541.00000 0.938931
9542.00000 0.938463
9543.00000 0.938414
9544.00000 0.938419
9545.00000 0.939095
9546.00000 0.939217
9547.00000 0.937464
9548.00000 0.939691
9549.00000 0.940136
9550.00000 0.940132
9551.00000 0.939145
9552.00000 0.939875
9553.00000 0.939198
9554.00000 0.94067
9555.00000 0.941181
9556.00000 0.938079
9557.00000 0.941796
9558.00000 0.943056
9559.00000 0.940241
9560.00000 0.941747
9561.00000 0.940724
9562.00000 0.942321
9563.00000 0.942178
9564.00000 0.942105
9565.00000 0.942443
9566.00000 0.94249
9567.00000 0.942526
9568.00000 0.943784
9569.00000 0.94404
9570.00000 0.94415
9571.00000 0.944345
9572.00000 0.943992
9573.00000 0.945204
9574.00000 0.945454
9575.00000 0.945462
9576.00000 0.946363
9577.00000 0.946246
9578.00000 0.946905
9579.00000 0.947719
9580.00000 0.948088
9581.00000 0.947244
9582.00000 0.948303
9583.00000 0.949309
9584.00000 0.949376
9585.00000 0.950037
9586.00000 0.950638
9587.00000 0.950878
9588.00000 0.949724
9589.00000 0.950178
9590.00000 0.951503
9591.00000 0.951472
9592.00000 0.951793
9593.00000 0.952994
9594.00000 0.95247
9595.00000 0.953421
9596.00000 0.953635
9597.00000 0.95276
9598.00000 0.953841
9599.00000 0.954545
9600.00000 0.953925
9601.00000 0.954187
9602.00000 0.953946
9603.00000 0.954269
9604.00000 0.955952
9605.00000 0.954438
9606.00000 0.95523
9607.00000 0.955963
9608.00000 0.954503
9609.00000 0.956036
9610.00000 0.956112
9611.00000 0.956714
9612.00000 0.955711
9613.00000 0.955445
9614.00000 0.956375
9615.00000 0.956784
9616.00000 0.954893
9617.00000 0.956323
9618.00000 0.95613
9619.00000 0.956114
9620.00000 0.956927
9621.00000 0.954826
9622.00000 0.956494
9623.00000 0.956733
9624.00000 0.955096
9625.00000 0.955869
9626.00000 0.956273
9627.00000 0.954994
9628.00000 0.955434
9629.00000 0.954946
9630.00000 0.955221
9631.00000 0.955293
9632.00000 0.954541
9633.00000 0.954485
9634.00000 0.955096
9635.00000 0.954229
9636.00000 0.954257
9637.00000 0.953555
9638.00000 0.952634
9639.00000 0.953805
9640.00000 0.952932
9641.00000 0.952679
9642.00000 0.953045
9643.00000 0.95261
9644.00000 0.951997
9645.00000 0.952844
9646.00000 0.95142
9647.00000 0.951434
9648.00000 0.951869
9649.00000 0.951101
9650.00000 0.951665
9651.00000 0.951233
9652.00000 0.950629
9653.00000 0.950842
9654.00000 0.950584
9655.00000 0.950999
9656.00000 0.950474
9657.00000 0.949469
9658.00000 0.950668
9659.00000 0.949384
9660.00000 0.949179
9661.00000 0.950449
9662.00000 0.948699
9663.00000 0.949294
9664.00000 0.950145
9665.00000 0.948558
9666.00000 0.949379
9667.00000 0.949998
9668.00000 0.948147
9669.00000 0.94939
9670.00000 0.949548
9671.00000 0.94919
9672.00000 0.949459
9673.00000 0.948586
9674.00000 0.9495
9675.00000 0.950121
9676.00000 0.948954
9677.00000 0.949767
9678.00000 0.949164
9679.00000 0.949439
9680.00000 0.951197
9681.00000 0.949335
9682.00000 0.949843
9683.00000 0.950495
9684.00000 0.949742
9685.00000 0.950877
9686.00000 0.951052
9687.00000 0.950217
9688.00000 0.95035
9689.00000 0.950901
9690.00000 0.951673
9691.00000 0.952352
9692.00000 0.95134
9693.00000 0.950989
9694.00000 0.95423
9695.00000 0.952662
9696.00000 0.95335
9697.00000 0.953812
9698.00000 0.95287
9699.00000 0.954035
9700.00000 0.954409
9701.00000 0.953521
9702.00000 0.955078
9703.00000 0.954199
9704.00000 0.95498
9705.00000 0.956065
9706.00000 0.955148
9707.00000 0.956351
9708.00000 0.955919
9709.00000 0.955927
9710.00000 0.9576
9711.00000 0.956596
9712.00000 0.95697
9713.00000 0.957543
9714.00000 0.957224
9715.00000 0.958658
9716.00000 0.958378
9717.00000 0.958107
9718.00000 0.959545
9719.00000 0.958528
9720.00000 0.958314
9721.00000 0.959863
9722.00000 0.95919
9723.00000 0.958623
9724.00000 0.959931
9725.00000 0.958978
9726.00000 0.960048
9727.00000 0.960167
9728.00000 0.958919
9729.00000 0.960317
9730.00000 0.960132
9731.00000 0.960121
9732.00000 0.960447
9733.00000 0.959682
9734.00000 0.959471
9735.00000 0.960373
9736.00000 0.9594
9737.00000 0.96027
9738.00000 0.959497
9739.00000 0.958834
9740.00000 0.959378
9741.00000 0.959163
9742.00000 0.959055
9743.00000 0.95841
9744.00000 0.957516
9745.00000 0.958382
9746.00000 0.957692
9747.00000 0.956242
9748.00000 0.956459
9749.00000 0.955484
9750.00000 0.955764
9751.00000 0.956173
9752.00000 0.953806
9753.00000 0.953988
9754.00000 0.953911
9755.00000 0.951304
9756.00000 0.952145
9757.00000 0.951823
9758.00000 0.949636
9759.00000 0.949363
9760.00000 0.947527
9761.00000 0.947884
9762.00000 0.946471
9763.00000 0.944798
9764.00000 0.944028
9765.00000 0.943146
9766.00000 0.941782
9767.00000 0.940533
9768.00000 0.938432
9769.00000 0.936896
9770.00000 0.936332
9771.00000 0.934871
9772.00000 0.932108
9773.00000 0.93057
9774.00000 0.928985
9775.00000 0.927806
9776.00000 0.924812
9777.00000 0.922602
9778.00000 0.922027
9779.00000 0.918658
9780.00000 0.916134
9781.00000 0.914715
9782.00000 0.912033
9783.00000 0.909609
9784.00000 0.905576
9785.00000 0.903201
9786.00000 0.901039
9787.00000 0.898011
9788.00000 0.894867
9789.00000 0.891786
9790.00000 0.887969
9791.00000 0.885036
9792.00000 0.882068
9793.00000 0.87656
9794.00000 0.87257
9795.00000 0.869533
9796.00000 0.865842
9797.00000 0.861824
9798.00000 0.856637
9799.00000 0.852143
9800.00000 0.848928
9801.00000 0.843045
9802.00000 0.837405
9803.00000 0.833121
9804.00000 0.827695
9805.00000 0.823322
9806.00000 0.819645
9807.00000 0.812672
9808.00000 0.80646
9809.00000 0.800533
9810.00000 0.793886
9811.00000 0.787724
9812.00000 0.781335
9813.00000 0.775315
9814.00000 0.770828
9815.00000 0.762151
9816.00000 0.75591
9817.00000 0.749733
9818.00000 0.74149
9819.00000 0.733731
9820.00000 0.726295
9821.00000 0.71835
9822.00000 0.71361
9823.00000 0.704905
9824.00000 0.696908
9825.00000 0.688923
9826.00000 0.68083
9827.00000 0.67257
9828.00000 0.66276
9829.00000 0.653574
9830.00000 0.647026
9831.00000 0.639606
9832.00000 0.629611
9833.00000 0.622661
9834.00000 0.613056
9835.00000 0.604613
9836.00000 0.595755
9837.00000 0.585169
9838.00000 0.576673
9839.00000 0.570274
9840.00000 0.561182
9841.00000 0.55157
9842.00000 0.542202
9843.00000 0.532794
9844.00000 0.524753
9845.00000 0.512257
9846.00000 0.503203
9847.00000 0.495955
9848.00000 0.486619
9849.00000 0.477522
9850.00000 0.469703
9851.00000 0.459913
9852.00000 0.451018
9853.00000 0.442416
9854.00000 0.431542
9855.00000 0.422713
9856.00000 0.414915
9857.00000 0.40866
9858.00000 0.398949
9859.00000 0.389354
9860.00000 0.380884
9861.00000 0.373743
9862.00000 0.363684
9863.00000 0.353511
9864.00000 0.345463
9865.00000 0.339396
9866.00000 0.331303
9867.00000 0.32312
9868.00000 0.315174
9869.00000 0.307849
9870.00000 0.300584
9871.00000 0.292094
9872.00000 0.284719
9873.00000 0.278951
9874.00000 0.272822
9875.00000 0.265403
9876.00000 0.258084
9877.00000 0.251649
9878.00000 0.245322
9879.00000 0.238522
9880.00000 0.230529
9881.00000 0.225171
9882.00000 0.219583
9883.00000 0.214194
9884.00000 0.207874
9885.00000 0.202389
9886.00000 0.196389
9887.00000 0.191514
9888.00000 0.185018
9889.00000 0.179666
9890.00000 0.175437
9891.00000 0.171092
9892.00000 0.167097
9893.00000 0.16139
9894.00000 0.15634
9895.00000 0.152564
9896.00000 0.148418
9897.00000 0.143117
9898.00000 0.138511
9899.00000 0.135328
9900.00000 0.131822
9901.00000 0.127908
9902.00000 0.123746
9903.00000 0.12008
9904.00000 0.11731
9905.00000 0.113094
9906.00000 0.109334
9907.00000 0.106663
9908.00000 0.104006
9909.00000 0.101291
9910.00000 0.0977998
9911.00000 0.0947434
9912.00000 0.092493
9913.00000 0.0898673
9914.00000 0.0862539
9915.00000 0.0838464
9916.00000 0.0814924
9917.00000 0.0795051
9918.00000 0.0773356
9919.00000 0.0748416
9920.00000 0.0724032
9921.00000 0.0707214
9922.00000 0.0683098
9923.00000 0.0659349
9924.00000 0.0641132
9925.00000 0.0626564
9926.00000 0.0611219
9927.00000 0.0588507
9928.00000 0.0570709
9929.00000 0.0556057
9930.00000 0.0541096
9931.00000 0.0522234
9932.00000 0.0504523
9933.00000 0.048993
9934.00000 0.0477437
9935.00000 0.0466439
9936.00000 0.045159
9937.00000 0.0436858
9938.00000 0.0426403
9939.00000 0.041392
9940.00000 0.0399759
9941.00000 0.0387715
9942.00000 0.0378703
9943.00000 0.0369273
9944.00000 0.0359082
9945.00000 0.0347219
9946.00000 0.0336999
9947.00000 0.0329051
9948.00000 0.031783
9949.00000 0.0307271
9950.00000 0.0298398
9951.00000 0.0290063
9952.00000 0.0284372
9953.00000 0.0275391
9954.00000 0.0266849
9955.00000 0.0260512
9956.00000 0.0253644
9957.00000 0.0245164
9958.00000 0.0238825
9959.00000 0.0230996
9960.00000 0.0226747
9961.00000 0.0221888
9962.00000 0.0213364
9963.00000 0.0208037
9964.00000 0.0202551
9965.00000 0.0196332
9966.00000 0.0190529
9967.00000 0.0184383
9968.00000 0.0179976
9969.00000 0.0176099
9970.00000 0.0170724
9971.00000 0.0166419
9972.00000 0.0162302
9973.00000 0.0157858
9974.00000 0.0152775
9975.00000 0.0149168
9976.00000 0.0144691
9977.00000 0.0141574
9978.00000 0.0138633
9979.00000 0.0134837
9980.00000 0.013055
9981.00000 0.0127416
9982.00000 0.0124441
9983.00000 0.0120108
9984.00000 0.0116659
9985.00000 0.0114151
9986.00000 0.0110552
9987.00000 0.0108213
9988.00000 0.0105684
9989.00000 0.0103065
9990.00000 0.00998666
9991.00000 0.00983237
9992.00000 0.00944264
9993.00000 0.0092008
9994.00000 0.00906415
9995.00000 0.00884531
9996.00000 0.00860532
9997.00000 0.0084168
9998.00000 0.00811015
9999.00000 0.00803017
10000.00000 0.00773809
10001.00000 0.00746084
10002.00000 0.00732411
10003.00000 0.00719275
10004.00000 0.0070928
10005.00000 0.00692078
10006.00000 0.00664705
10007.00000 0.00648005
10008.00000 0.00635601
10009.00000 0.00621715
10010.00000 0.00602513
10011.00000 0.00592781
10012.00000 0.00577324
10013.00000 0.00563973
10014.00000 0.00548305
10015.00000 0.00534576
10016.00000 0.0052631
10017.00000 0.00512547
10018.00000 0.00486943
10019.00000 0.00484724
10020.00000 0.00469683
10021.00000 0.00460955
10022.00000 0.00451805
10023.00000 0.00439978
10024.00000 0.00432458
10025.00000 0.00423949
10026.00000 0.00405726
10027.00000 0.00397781
10028.00000 0.00388944
10029.00000 0.00381007
10030.00000 0.00381014
10031.00000 0.00366265
10032.00000 0.00358817
10033.00000 0.00347353
10034.00000 0.0033982
10035.00000 0.0033005
10036.00000 0.0031856
10037.00000 0.00321737
10038.00000 0.00308677
10039.00000 0.00307945
10040.00000 0.00301432
10041.00000 0.00288849
10042.00000 0.00286357
10043.00000 0.00274631
10044.00000 0.00270046
10045.00000 0.002631
10046.00000 0.00256984
10047.00000 0.00252547
10048.00000 0.00251977
10049.00000 0.00243103
10050.00000 0.00237411
10051.00000 0.00239916
10052.00000 0.00228545
10053.00000 0.00219276
10054.00000 0.00216405
10055.00000 0.00212135
10056.00000 0.00208984
10057.00000 0.00204189
10058.00000 0.00196245
11063.79980 0.0
