# %ECSV 0.9
# ---
# datatype:
# - {name: wavelength, unit: Angstrom, datatype: float32}
# - {name: response, datatype: float32}
# meta: !!omap
# - {band_name: Bessel_I}
# - {group_name: WiFSIP}
wavelength response
6201.00000 0.0
6890.00000 4e-06
6895.00000 1e-06
6900.00000 2e-06
6905.00000 4e-06
6910.00000 8e-06
6915.00000 2.5e-05
6920.00000 4.1e-05
6925.00000 4.2e-05
6930.00000 7.5e-05
6935.00000 9.5e-05
6940.00000 0.00014
6945.00000 0.000188
6950.00000 0.000247
6955.00000 0.000353
6960.00000 0.000479
6965.00000 0.000607
6970.00000 0.000803
6975.00000 0.001065
6980.00000 0.00136
6985.00000 0.00174
6990.00000 0.002203
6995.00000 0.002786
7000.00000 0.003451
7005.00000 0.004266
7010.00000 0.005265
7015.00000 0.006384
7020.00000 0.007762
7025.00000 0.009309
7030.00000 0.011103
7035.00000 0.013261
7040.00000 0.015604
7045.00000 0.018279
7050.00000 0.021308
7055.00000 0.024682
7060.00000 0.028473
7065.00000 0.032674
7070.00000 0.037257
7075.00000 0.042412
7080.00000 0.047759
7085.00000 0.053699
7090.00000 0.060096
7095.00000 0.066921
7100.00000 0.074406
7105.00000 0.082099
7110.00000 0.090327
7115.00000 0.099338
7120.00000 0.108453
7125.00000 0.118249
7130.00000 0.128654
7135.00000 0.139193
7140.00000 0.150294
7145.00000 0.16156
7150.00000 0.173335
7155.00000 0.18594
7160.00000 0.198241
7165.00000 0.211346
7170.00000 0.224716
7175.00000 0.237872
7180.00000 0.25174
7185.00000 0.26542
7190.00000 0.279388
7195.00000 0.293973
7200.00000 0.308076
7205.00000 0.322497
7210.00000 0.337258
7215.00000 0.35137
7220.00000 0.366075
7225.00000 0.380625
7230.00000 0.395058
7235.00000 0.409868
7240.00000 0.424066
7245.00000 0.438282
7250.00000 0.453145
7255.00000 0.467011
7260.00000 0.481256
7265.00000 0.495158
7270.00000 0.508706
7275.00000 0.522387
7280.00000 0.535328
7285.00000 0.548505
7290.00000 0.561832
7295.00000 0.574412
7300.00000 0.586898
7305.00000 0.598968
7310.00000 0.610954
7315.00000 0.622938
7320.00000 0.634124
7325.00000 0.645604
7330.00000 0.656534
7335.00000 0.666848
7340.00000 0.677637
7345.00000 0.687769
7350.00000 0.697555
7355.00000 0.707422
7360.00000 0.716933
7365.00000 0.725618
7370.00000 0.734749
7375.00000 0.743239
7380.00000 0.751839
7385.00000 0.759485
7390.00000 0.767458
7395.00000 0.775402
7400.00000 0.782162
7405.00000 0.789242
7410.00000 0.796388
7415.00000 0.803074
7420.00000 0.809298
7425.00000 0.815729
7430.00000 0.821498
7435.00000 0.827318
7440.00000 0.832617
7445.00000 0.838191
7450.00000 0.843441
7455.00000 0.848145
7460.00000 0.852949
7465.00000 0.857718
7470.00000 0.862094
7475.00000 0.866463
7480.00000 0.870401
7485.00000 0.8745
7490.00000 0.87841
7495.00000 0.881898
7500.00000 0.885534
7505.00000 0.889216
7510.00000 0.892368
7515.00000 0.895464
7520.00000 0.898468
7525.00000 0.901324
7530.00000 0.904129
7535.00000 0.906549
7540.00000 0.909238
7545.00000 0.911714
7550.00000 0.91419
7555.00000 0.91636
7560.00000 0.918648
7565.00000 0.920764
7570.00000 0.922616
7575.00000 0.924644
7580.00000 0.92616
7585.00000 0.928073
7590.00000 0.929582
7595.00000 0.931597
7600.00000 0.932945
7605.00000 0.934551
7610.00000 0.935986
7615.00000 0.937113
7620.00000 0.938625
7625.00000 0.939576
7630.00000 0.94114
7635.00000 0.942149
7640.00000 0.943186
7645.00000 0.944208
7650.00000 0.945049
7655.00000 0.945886
7660.00000 0.946807
7665.00000 0.947671
7670.00000 0.948543
7675.00000 0.949576
7680.00000 0.950154
7685.00000 0.950865
7690.00000 0.951701
7695.00000 0.95242
7700.00000 0.952841
7705.00000 0.953109
7710.00000 0.954075
7715.00000 0.954159
7720.00000 0.955021
7725.00000 0.955173
7730.00000 0.955814
7735.00000 0.956524
7740.00000 0.956874
7745.00000 0.957086
7750.00000 0.957376
7755.00000 0.958085
7760.00000 0.958173
7765.00000 0.958459
7770.00000 0.958913
7775.00000 0.959091
7780.00000 0.959252
7785.00000 0.959499
7790.00000 0.959701
7795.00000 0.95996
7800.00000 0.960145
7805.00000 0.960277
7810.00000 0.960779
7815.00000 0.960366
7820.00000 0.960703
7825.00000 0.960788
7830.00000 0.961162
7835.00000 0.96124
7840.00000 0.961339
7845.00000 0.961268
7850.00000 0.961335
7855.00000 0.961309
7860.00000 0.961435
7865.00000 0.961401
7870.00000 0.961361
7875.00000 0.961291
7880.00000 0.961492
7885.00000 0.961603
7890.00000 0.961669
7895.00000 0.961714
7900.00000 0.961611
7905.00000 0.962035
7910.00000 0.961415
7915.00000 0.961323
7920.00000 0.961509
7925.00000 0.961469
7930.00000 0.961496
7935.00000 0.961375
7940.00000 0.961329
7945.00000 0.961189
7950.00000 0.961105
7955.00000 0.960944
7960.00000 0.961306
7965.00000 0.961139
7970.00000 0.960891
7975.00000 0.961049
7980.00000 0.960747
7985.00000 0.960448
7990.00000 0.960735
7995.00000 0.960395
8000.00000 0.960832
8005.00000 0.960177
8010.00000 0.960107
8015.00000 0.960072
8020.00000 0.959566
8025.00000 0.959805
8030.00000 0.959914
8035.00000 0.95932
8040.00000 0.959566
8045.00000 0.959212
8050.00000 0.959162
8055.00000 0.959136
8060.00000 0.959097
8065.00000 0.958739
8070.00000 0.958295
8075.00000 0.958584
8080.00000 0.958466
8085.00000 0.958272
8090.00000 0.95811
8095.00000 0.958454
8100.00000 0.957567
8105.00000 0.957193
8110.00000 0.957651
8115.00000 0.957297
8120.00000 0.957538
8125.00000 0.957079
8130.00000 0.957058
8135.00000 0.95689
8140.00000 0.957158
8145.00000 0.956674
8150.00000 0.956832
8155.00000 0.956628
8160.00000 0.956369
8165.00000 0.956016
8170.00000 0.956246
8175.00000 0.956473
8180.00000 0.955689
8185.00000 0.95616
8190.00000 0.955525
8195.00000 0.955699
8200.00000 0.955719
8205.00000 0.955834
8210.00000 0.955583
8215.00000 0.955109
8220.00000 0.95493
8225.00000 0.95479
8230.00000 0.955003
8235.00000 0.954747
8240.00000 0.954585
8245.00000 0.954856
8250.00000 0.954426
8255.00000 0.954417
8260.00000 0.953961
8265.00000 0.953297
8270.00000 0.953835
8275.00000 0.953442
8280.00000 0.953233
8285.00000 0.95331
8290.00000 0.952635
8295.00000 0.952616
8300.00000 0.952619
8305.00000 0.952005
8310.00000 0.951973
8315.00000 0.952318
8320.00000 0.951705
8325.00000 0.95158
8330.00000 0.951218
8335.00000 0.950686
8340.00000 0.950903
8345.00000 0.950402
8350.00000 0.950179
8355.00000 0.950223
8360.00000 0.94959
8365.00000 0.949523
8370.00000 0.949204
8375.00000 0.948711
8380.00000 0.94898
8385.00000 0.94848
8390.00000 0.948252
8395.00000 0.948333
8400.00000 0.947533
8405.00000 0.9471
8410.00000 0.947403
8415.00000 0.947639
8420.00000 0.946936
8425.00000 0.946669
8430.00000 0.945849
8435.00000 0.945101
8440.00000 0.945525
8445.00000 0.944999
8450.00000 0.944911
8455.00000 0.944847
8460.00000 0.944238
8465.00000 0.943876
8470.00000 0.943179
8475.00000 0.943439
8480.00000 0.94316
8485.00000 0.942527
8490.00000 0.942644
8495.00000 0.941453
8500.00000 0.941467
8505.00000 0.941133
8510.00000 0.940887
8515.00000 0.940324
8520.00000 0.940261
8525.00000 0.940055
8530.00000 0.93947
8535.00000 0.938889
8540.00000 0.938894
8545.00000 0.938091
8550.00000 0.938385
8555.00000 0.938837
8560.00000 0.936717
8565.00000 0.937532
8570.00000 0.937032
8575.00000 0.936661
8580.00000 0.936334
8585.00000 0.936406
8590.00000 0.936152
8595.00000 0.934882
8600.00000 0.935724
8605.00000 0.93435
8610.00000 0.933721
8615.00000 0.932332
8620.00000 0.932492
8625.00000 0.93336
8630.00000 0.932415
8635.00000 0.932968
8640.00000 0.931266
8645.00000 0.93008
8650.00000 0.93151
8655.00000 0.928435
8660.00000 0.929827
8665.00000 0.929326
8670.00000 0.928523
8675.00000 0.92961
8680.00000 0.928977
8685.00000 0.927947
8690.00000 0.928902
8695.00000 0.927322
8700.00000 0.927743
8705.00000 0.926592
8710.00000 0.925272
8715.00000 0.924054
8720.00000 0.923983
8725.00000 0.924712
8730.00000 0.92856
8735.00000 0.9255
8740.00000 0.9244
8745.00000 0.923013
8750.00000 0.92123
8755.00000 0.924449
8760.00000 0.925025
8765.00000 0.923777
8770.00000 0.921628
8775.00000 0.922045
8780.00000 0.919874
8785.00000 0.919275
8790.00000 0.9195
8795.00000 0.917241
8800.00000 0.918961
8805.00000 0.918161
8810.00000 0.919342
8815.00000 0.917367
8820.00000 0.915829
8825.00000 0.917968
8830.00000 0.917284
8835.00000 0.916692
8840.00000 0.916543
8845.00000 0.91494
8850.00000 0.915245
8855.00000 0.917819
8860.00000 0.910253
8865.00000 0.912136
8870.00000 0.914948
8875.00000 0.914923
8880.00000 0.913742
8885.00000 0.908497
8890.00000 0.910289
8895.00000 0.908799
8900.00000 0.906347
8905.00000 0.909983
8910.00000 0.90922
8915.00000 0.907956
8920.00000 0.906975
8925.00000 0.908745
8930.00000 0.907638
8935.00000 0.906134
8940.00000 0.905667
8945.00000 0.903679
8950.00000 0.900319
8955.00000 0.902931
8960.00000 0.900238
8965.00000 0.898286
8970.00000 0.904462
8975.00000 0.903264
8980.00000 0.901505
8985.00000 0.898283
8990.00000 0.901477
8995.00000 0.903314
9000.00000 0.902538
9005.00000 0.901942
9010.00000 0.90135
9015.00000 0.900902
9020.00000 0.900443
9025.00000 0.899613
9030.00000 0.899135
9035.00000 0.898553
9040.00000 0.897706
9045.00000 0.89737
9050.00000 0.896716
9055.00000 0.896074
9060.00000 0.895404
9065.00000 0.894857
9070.00000 0.894246
9075.00000 0.893714
9080.00000 0.892834
9085.00000 0.892221
9090.00000 0.891737
9095.00000 0.89111
9100.00000 0.890465
9105.00000 0.889825
9110.00000 0.88922
9115.00000 0.888566
9120.00000 0.887856
9125.00000 0.88722
9130.00000 0.886397
9135.00000 0.885697
9140.00000 0.885159
9145.00000 0.884625
9150.00000 0.883723
9155.00000 0.883168
9160.00000 0.882498
9165.00000 0.881734
9170.00000 0.881033
9175.00000 0.880261
9180.00000 0.879527
9185.00000 0.878858
9190.00000 0.878168
9195.00000 0.877556
9200.00000 0.876915
9205.00000 0.875985
9210.00000 0.875326
9215.00000 0.874608
9220.00000 0.873833
9225.00000 0.873096
9230.00000 0.872442
9235.00000 0.871757
9240.00000 0.870929
9245.00000 0.870103
9250.00000 0.869403
9255.00000 0.868639
9260.00000 0.867863
9265.00000 0.867058
9270.00000 0.866361
9275.00000 0.865492
9280.00000 0.864684
9285.00000 0.863946
9290.00000 0.863236
9295.00000 0.862336
9300.00000 0.8616
9305.00000 0.860679
9310.00000 0.859868
9315.00000 0.859127
9320.00000 0.858243
9325.00000 0.857519
9330.00000 0.856632
9335.00000 0.855891
9340.00000 0.854944
9345.00000 0.854157
9350.00000 0.853256
9355.00000 0.85239
9360.00000 0.851518
9365.00000 0.850656
9370.00000 0.84968
9375.00000 0.848974
9380.00000 0.84798
9385.00000 0.847065
9390.00000 0.846226
9395.00000 0.845287
9400.00000 0.844459
9405.00000 0.843371
9410.00000 0.842585
9415.00000 0.841662
9420.00000 0.840693
9425.00000 0.839711
9430.00000 0.838853
9435.00000 0.837814
9440.00000 0.836959
9445.00000 0.836094
9450.00000 0.835029
9455.00000 0.834114
9460.00000 0.833079
9465.00000 0.832074
9470.00000 0.831058
9475.00000 0.830007
9480.00000 0.829073
9485.00000 0.828126
9490.00000 0.827005
9495.00000 0.825902
9500.00000 0.824915
9505.00000 0.823889
9510.00000 0.82297
9515.00000 0.821823
9520.00000 0.820767
9525.00000 0.819621
9530.00000 0.818581
9535.00000 0.817555
9540.00000 0.81647
9545.00000 0.815487
9550.00000 0.814295
9555.00000 0.813056
9560.00000 0.812014
9565.00000 0.810828
9570.00000 0.809772
9575.00000 0.80862
9580.00000 0.80755
9585.00000 0.806335
9590.00000 0.805136
9595.00000 0.804091
9600.00000 0.802929
9605.00000 0.801875
9610.00000 0.80066
9615.00000 0.799298
9620.00000 0.798069
9625.00000 0.796934
9630.00000 0.795708
9635.00000 0.794712
9640.00000 0.793357
9645.00000 0.79216
9650.00000 0.791029
9655.00000 0.789529
9660.00000 0.788413
9665.00000 0.787239
9670.00000 0.786047
9675.00000 0.784703
9680.00000 0.783441
9685.00000 0.78206
9690.00000 0.780775
9695.00000 0.77954
9700.00000 0.778222
9705.00000 0.776976
9710.00000 0.775578
9715.00000 0.774199
9720.00000 0.77283
9725.00000 0.771612
9730.00000 0.770261
9735.00000 0.768849
9740.00000 0.767566
9745.00000 0.766107
9750.00000 0.764558
9755.00000 0.76327
9760.00000 0.761926
9765.00000 0.760466
9770.00000 0.759039
9775.00000 0.757543
9780.00000 0.756149
9785.00000 0.754559
9790.00000 0.753297
9795.00000 0.751756
9800.00000 0.750273
9805.00000 0.748721
9810.00000 0.747227
9815.00000 0.745823
9820.00000 0.74422
9825.00000 0.742667
9830.00000 0.741267
9835.00000 0.739608
9840.00000 0.738031
9845.00000 0.736411
9850.00000 0.734823
9855.00000 0.733343
9860.00000 0.73192
9865.00000 0.730199
9870.00000 0.728582
9875.00000 0.726758
9880.00000 0.72523
9885.00000 0.723644
9890.00000 0.722044
9895.00000 0.720436
9900.00000 0.71855
9905.00000 0.716792
9910.00000 0.715079
9915.00000 0.7135
9920.00000 0.711801
9925.00000 0.710011
9930.00000 0.708311
9935.00000 0.706523
9940.00000 0.704895
9945.00000 0.702973
9950.00000 0.701278
9955.00000 0.699631
9960.00000 0.697823
9965.00000 0.695864
9970.00000 0.693991
9975.00000 0.692154
9980.00000 0.690425
9985.00000 0.688563
9990.00000 0.686772
9995.00000 0.684933
10000.00000 0.682803
10005.00000 0.680885
10010.00000 0.679088
10015.00000 0.677276
10020.00000 0.675398
10025.00000 0.673479
10030.00000 0.67147
10035.00000 0.669362
10040.00000 0.667415
10045.00000 0.665602
10050.00000 0.663697
10055.00000 0.661634
10060.00000 0.659534
10065.00000 0.657545
10070.00000 0.655479
10075.00000 0.653555
10080.00000 0.651634
10085.00000 0.649599
10090.00000 0.647478
10095.00000 0.645289
10100.00000 0.643264
10105.00000 0.641259
10110.00000 0.639257
10115.00000 0.637202
10120.00000 0.634981
10125.00000 0.632817
10130.00000 0.630641
10135.00000 0.628549
10140.00000 0.626649
10145.00000 0.624376
10150.00000 0.622272
10155.00000 0.619881
10160.00000 0.617722
10165.00000 0.615563
10170.00000 0.6135
10175.00000 0.611353
10180.00000 0.609184
10185.00000 0.606833
10190.00000 0.604628
10195.00000 0.602347
10200.00000 0.600214
10205.00000 0.598123
10210.00000 0.595761
10215.00000 0.593491
10220.00000 0.591111
10225.00000 0.588746
10230.00000 0.586548
10235.00000 0.58434
10240.00000 0.582114
10245.00000 0.579643
10250.00000 0.577199
10255.00000 0.5749
10260.00000 0.572469
10265.00000 0.570311
10270.00000 0.567981
10275.00000 0.565588
10280.00000 0.563129
10285.00000 0.560554
10290.00000 0.558177
10295.00000 0.555832
10300.00000 0.553664
10305.00000 0.551237
10310.00000 0.548599
10315.00000 0.546021
10320.00000 0.543571
10325.00000 0.54124
10330.00000 0.538905
10335.00000 0.536544
10340.00000 0.533957
10345.00000 0.531304
10350.00000 0.528756
10355.00000 0.526332
10360.00000 0.52405
10365.00000 0.521479
10370.00000 0.519035
10375.00000 0.516465
10380.00000 0.513744
10385.00000 0.511188
10390.00000 0.508735
10395.00000 0.506368
10400.00000 0.503783
10405.00000 0.501211
10410.00000 0.498451
10415.00000 0.495769
10420.00000 0.493339
10425.00000 0.490963
10430.00000 0.488366
10435.00000 0.485595
10440.00000 0.482956
10445.00000 0.480291
10450.00000 0.477666
10455.00000 0.475222
10460.00000 0.472743
10465.00000 0.470032
10470.00000 0.467327
10475.00000 0.464545
10480.00000 0.461951
10485.00000 0.459347
10490.00000 0.456841
10495.00000 0.454361
10500.00000 0.451625
10505.00000 0.448693
10510.00000 0.44594
10515.00000 0.443458
10520.00000 0.440843
10525.00000 0.438186
10530.00000 0.435527
10535.00000 0.432622
10540.00000 0.429946
10545.00000 0.427247
10550.00000 0.42478
10555.00000 0.422213
10560.00000 0.419495
10565.00000 0.416773
10570.00000 0.413876
10575.00000 0.4112
10580.00000 0.408666
10585.00000 0.406218
10590.00000 0.403525
10595.00000 0.40066
10600.00000 0.397951
10605.00000 0.395191
10610.00000 0.392563
10615.00000 0.390108
10620.00000 0.387499
10625.00000 0.384674
10630.00000 0.381828
10635.00000 0.37908
10640.00000 0.376521
10645.00000 0.37403
10650.00000 0.371344
10655.00000 0.368671
10660.00000 0.365885
10665.00000 0.363095
10670.00000 0.360419
10675.00000 0.357872
10680.00000 0.35543
10685.00000 0.352771
10690.00000 0.349994
10695.00000 0.347315
10700.00000 0.344538
10705.00000 0.342028
10710.00000 0.339484
10715.00000 0.336947
10720.00000 0.334312
10725.00000 0.331493
10730.00000 0.328715
10735.00000 0.326102
10740.00000 0.32367
10745.00000 0.321167
10750.00000 0.318537
10755.00000 0.31577
10760.00000 0.312942
10765.00000 0.310363
10770.00000 0.307929
10775.00000 0.305512
10780.00000 0.30291
10785.00000 0.300335
10790.00000 0.297573
10795.00000 0.294958
10800.00000 0.292454
10805.00000 0.290071
10810.00000 0.287648
10815.00000 0.285001
10820.00000 0.282418
10825.00000 0.279778
10830.00000 0.277252
10835.00000 0.274873
10840.00000 0.272584
10845.00000 0.270015
10850.00000 0.267421
10855.00000 0.264876
10860.00000 0.262463
10865.00000 0.260025
10870.00000 0.257707
10875.00000 0.255324
10880.00000 0.252789
10885.00000 0.250271
10890.00000 0.247829
10895.00000 0.245563
10900.00000 0.243313
10905.00000 0.240928
10910.00000 0.238559
10915.00000 0.236115
10920.00000 0.233658
10925.00000 0.231375
10930.00000 0.22919
10935.00000 0.226963
10940.00000 0.224641
10945.00000 0.22234
10950.00000 0.219859
10955.00000 0.21761
10960.00000 0.215452
10965.00000 0.21339
10970.00000 0.211119
10975.00000 0.208831
10980.00000 0.20656
10985.00000 0.204237
10990.00000 0.202195
10995.00000 0.200168
11000.00000 0.198083
12100.00000 0.0
