# %ECSV 0.9
# ---
# datatype:
# - {name: wavelength, unit: Angstrom, datatype: float32}
# - {name: response, datatype: float32}
# meta: !!omap
# - {band_name: sdss_z}
# - {group_name: CAMELOT}
wavelength response
7173.00000 0.0
7970.00000 0.004063
7973.00000 0.004305
7976.00000 0.004524
7979.00000 0.00478
7982.00000 0.005067
7985.00000 0.005386
7988.00000 0.005646
7991.00000 0.005964
7994.00000 0.006283
7997.00000 0.006752
8000.00000 0.02003
8003.00000 0.021011
8006.00000 0.021989
8009.00000 0.022928
8012.00000 0.024075
8015.00000 0.025168
8018.00000 0.026053
8021.00000 0.027301
8024.00000 0.028638
8027.00000 0.029874
8030.00000 0.031085
8033.00000 0.032462
8036.00000 0.033946
8039.00000 0.035266
8042.00000 0.036781
8045.00000 0.038432
8048.00000 0.040017
8051.00000 0.041703
8054.00000 0.043458
8057.00000 0.045015
8060.00000 0.047098
8063.00000 0.048982
8066.00000 0.050967
8069.00000 0.052909
8072.00000 0.055151
8075.00000 0.05729
8078.00000 0.059388
8081.00000 0.061741
8084.00000 0.064195
8087.00000 0.066646
8090.00000 0.068757
8093.00000 0.071396
8096.00000 0.074663
8099.00000 0.076404
8102.00000 0.078774
8105.00000 0.082902
8108.00000 0.08442
8111.00000 0.087443
8114.00000 0.090505
8117.00000 0.093465
8120.00000 0.096822
8123.00000 0.100034
8126.00000 0.103047
8129.00000 0.106264
8132.00000 0.109763
8135.00000 0.113422
8138.00000 0.11689
8141.00000 0.12041
8144.00000 0.124261
8147.00000 0.128045
8150.00000 0.13241
8153.00000 0.136177
8156.00000 0.140335
8159.00000 0.145427
8162.00000 0.14886
8165.00000 0.153135
8168.00000 0.157398
8171.00000 0.16212
8174.00000 0.167031
8177.00000 0.17174
8180.00000 0.17598
8183.00000 0.181177
8186.00000 0.185859
8189.00000 0.191214
8192.00000 0.196646
8195.00000 0.202109
8198.00000 0.206955
8201.00000 0.212439
8204.00000 0.217823
8207.00000 0.22283
8210.00000 0.229997
8213.00000 0.2342
8216.00000 0.239764
8219.00000 0.24726
8222.00000 0.252006
8225.00000 0.257817
8228.00000 0.264296
8231.00000 0.270456
8234.00000 0.276201
8237.00000 0.282596
8240.00000 0.288687
8243.00000 0.295313
8246.00000 0.301432
8249.00000 0.308189
8252.00000 0.314651
8255.00000 0.320729
8258.00000 0.327394
8261.00000 0.334693
8264.00000 0.340614
8267.00000 0.34727
8270.00000 0.354702
8273.00000 0.360591
8276.00000 0.367369
8279.00000 0.374641
8282.00000 0.38131
8285.00000 0.387548
8288.00000 0.3948
8291.00000 0.401739
8294.00000 0.408532
8297.00000 0.415701
8300.00000 0.422102
8303.00000 0.429108
8306.00000 0.435966
8309.00000 0.442951
8312.00000 0.450611
8315.00000 0.45717
8318.00000 0.464371
8321.00000 0.470912
8324.00000 0.47744
8327.00000 0.484517
8330.00000 0.491327
8333.00000 0.497716
8336.00000 0.504875
8339.00000 0.511789
8342.00000 0.517823
8345.00000 0.524555
8348.00000 0.531543
8351.00000 0.538096
8354.00000 0.54389
8357.00000 0.550887
8360.00000 0.557353
8363.00000 0.563544
8366.00000 0.57008
8369.00000 0.576246
8372.00000 0.58254
8375.00000 0.588434
8378.00000 0.594664
8381.00000 0.600937
8384.00000 0.60682
8387.00000 0.612823
8390.00000 0.618399
8393.00000 0.624087
8396.00000 0.629902
8399.00000 0.635573
8402.00000 0.640905
8405.00000 0.646618
8408.00000 0.652406
8411.00000 0.657578
8414.00000 0.662368
8417.00000 0.668298
8420.00000 0.673273
8423.00000 0.678041
8426.00000 0.683231
8429.00000 0.688131
8432.00000 0.692241
8435.00000 0.697386
8438.00000 0.702351
8441.00000 0.706835
8444.00000 0.711163
8447.00000 0.715842
8450.00000 0.720353
8453.00000 0.725025
8456.00000 0.728965
8459.00000 0.733363
8462.00000 0.737321
8465.00000 0.741654
8468.00000 0.746251
8471.00000 0.749147
8474.00000 0.75303
8477.00000 0.757146
8480.00000 0.760952
8483.00000 0.763987
8486.00000 0.768239
8489.00000 0.771689
8492.00000 0.774826
8495.00000 0.77843
8498.00000 0.781806
8501.00000 0.785222
8504.00000 0.788429
8507.00000 0.791746
8510.00000 0.794645
8513.00000 0.797493
8516.00000 0.800514
8519.00000 0.803249
8522.00000 0.805971
8525.00000 0.809237
8528.00000 0.811306
8531.00000 0.814143
8534.00000 0.817137
8537.00000 0.820399
8540.00000 0.822522
8543.00000 0.824857
8546.00000 0.82736
8549.00000 0.829389
8552.00000 0.832079
8555.00000 0.834521
8558.00000 0.837902
8561.00000 0.838504
8564.00000 0.840943
8567.00000 0.843059
8570.00000 0.845228
8573.00000 0.847528
8576.00000 0.849441
8579.00000 0.851315
8582.00000 0.853226
8585.00000 0.854964
8588.00000 0.857617
8591.00000 0.858765
8594.00000 0.86081
8597.00000 0.862514
8600.00000 0.863967
8603.00000 0.866025
8606.00000 0.867247
8609.00000 0.869225
8612.00000 0.870762
8615.00000 0.872208
8618.00000 0.873545
8621.00000 0.875192
8624.00000 0.876608
8627.00000 0.878358
8630.00000 0.879101
8633.00000 0.880724
8636.00000 0.882228
8639.00000 0.883399
8642.00000 0.884948
8645.00000 0.886175
8648.00000 0.887388
8651.00000 0.888291
8654.00000 0.889531
8657.00000 0.890686
8660.00000 0.892066
8663.00000 0.893056
8666.00000 0.894283
8669.00000 0.895429
8672.00000 0.896281
8675.00000 0.897733
8678.00000 0.898551
8681.00000 0.8994
8684.00000 0.900419
8687.00000 0.901774
8690.00000 0.90229
8693.00000 0.903102
8696.00000 0.904138
8699.00000 0.905183
8702.00000 0.906047
8705.00000 0.906938
8708.00000 0.907539
8711.00000 0.908989
8714.00000 0.90942
8717.00000 0.910115
8720.00000 0.910788
8723.00000 0.911482
8726.00000 0.912409
8729.00000 0.913214
8732.00000 0.913774
8735.00000 0.914311
8738.00000 0.915462
8741.00000 0.915687
8744.00000 0.91664
8747.00000 0.917069
8750.00000 0.918019
8753.00000 0.918279
8756.00000 0.919207
8759.00000 0.91991
8762.00000 0.920468
8765.00000 0.921075
8768.00000 0.921671
8771.00000 0.922021
8774.00000 0.922331
8777.00000 0.922982
8780.00000 0.923567
8783.00000 0.924265
8786.00000 0.924235
8789.00000 0.92516
8792.00000 0.925841
8795.00000 0.926882
8798.00000 0.926842
8801.00000 0.927543
8804.00000 0.927633
8807.00000 0.928235
8810.00000 0.928897
8813.00000 0.92942
8816.00000 0.929425
8819.00000 0.929744
8822.00000 0.930278
8825.00000 0.930464
8828.00000 0.930746
8831.00000 0.931299
8834.00000 0.931986
8837.00000 0.932138
8840.00000 0.932778
8843.00000 0.932958
8846.00000 0.933686
8849.00000 0.933919
8852.00000 0.934429
8855.00000 0.934569
8858.00000 0.934751
8861.00000 0.935193
8864.00000 0.935446
8867.00000 0.935475
8870.00000 0.935897
8873.00000 0.936278
8876.00000 0.936555
8879.00000 0.936711
8882.00000 0.937093
8885.00000 0.938129
8888.00000 0.937858
8891.00000 0.938728
8894.00000 0.938859
8897.00000 0.938957
8900.00000 0.939214
8903.00000 0.939401
8906.00000 0.939796
8909.00000 0.939858
8912.00000 0.94009
8915.00000 0.94011
8918.00000 0.94069
8921.00000 0.940866
8924.00000 0.941319
8927.00000 0.941371
8930.00000 0.941917
8933.00000 0.94173
8936.00000 0.942161
8939.00000 0.942146
8942.00000 0.942284
8945.00000 0.942891
8948.00000 0.943277
8951.00000 0.943332
8954.00000 0.943266
8957.00000 0.943427
8960.00000 0.943848
8963.00000 0.943915
8966.00000 0.944262
8969.00000 0.944326
8972.00000 0.944155
8975.00000 0.945134
8978.00000 0.945087
8981.00000 0.945198
8984.00000 0.945374
8987.00000 0.945663
8990.00000 0.945789
8993.00000 0.946115
8996.00000 0.946726
8999.00000 0.946308
9002.00000 0.946677
9005.00000 0.946623
9008.00000 0.947216
9011.00000 0.946955
9014.00000 0.947276
9017.00000 0.947267
9020.00000 0.947798
9023.00000 0.947948
9026.00000 0.947805
9029.00000 0.948102
9032.00000 0.948303
9035.00000 0.948194
9038.00000 0.94834
9041.00000 0.948693
9044.00000 0.948642
9047.00000 0.948927
9050.00000 0.949084
9053.00000 0.949113
9056.00000 0.949214
9059.00000 0.949968
9062.00000 0.949865
9065.00000 0.95007
9068.00000 0.94985
9071.00000 0.950169
9074.00000 0.950179
9077.00000 0.950115
9080.00000 0.950752
9083.00000 0.950622
9086.00000 0.950959
9089.00000 0.95112
9092.00000 0.951327
9095.00000 0.951163
9098.00000 0.951194
9101.00000 0.951382
9104.00000 0.951641
9107.00000 0.951552
9110.00000 0.951777
9113.00000 0.951832
9116.00000 0.951998
9119.00000 0.95219
9122.00000 0.951908
9125.00000 0.952304
9128.00000 0.9522
9131.00000 0.952371
9134.00000 0.952493
9137.00000 0.952492
9140.00000 0.952358
9143.00000 0.95338
9146.00000 0.952886
9149.00000 0.953439
9152.00000 0.953424
9155.00000 0.953468
9158.00000 0.953374
9161.00000 0.953534
9164.00000 0.953643
9167.00000 0.953541
9170.00000 0.953545
9173.00000 0.953822
9176.00000 0.953873
9179.00000 0.954259
9182.00000 0.954593
9185.00000 0.954197
9188.00000 0.954599
9191.00000 0.954745
9194.00000 0.95498
9197.00000 0.954938
9200.00000 0.954995
9203.00000 0.954966
9206.00000 0.955371
9209.00000 0.954986
9212.00000 0.955011
9215.00000 0.955085
9218.00000 0.955181
9221.00000 0.955672
9224.00000 0.95563
9227.00000 0.955585
9230.00000 0.954876
9233.00000 0.955567
9236.00000 0.95604
9239.00000 0.955722
9242.00000 0.95613
9245.00000 0.956213
9248.00000 0.95642
9251.00000 0.95615
9254.00000 0.956294
9257.00000 0.956133
9260.00000 0.956532
9263.00000 0.956015
9266.00000 0.956616
9269.00000 0.956302
9272.00000 0.956842
9275.00000 0.956488
9278.00000 0.956965
9281.00000 0.957218
9284.00000 0.95754
9287.00000 0.957087
9290.00000 0.957239
9293.00000 0.957439
9296.00000 0.957583
9299.00000 0.957363
9302.00000 0.957326
9305.00000 0.957325
9308.00000 0.957586
9311.00000 0.957648
9314.00000 0.958012
9317.00000 0.957961
9320.00000 0.957909
9323.00000 0.95789
9326.00000 0.958175
9329.00000 0.958047
9332.00000 0.958349
9335.00000 0.958063
9338.00000 0.958567
9341.00000 0.958366
9344.00000 0.958634
9347.00000 0.958671
9350.00000 0.95879
9353.00000 0.958738
9356.00000 0.958809
9359.00000 0.958769
9362.00000 0.959075
9365.00000 0.959106
9368.00000 0.958901
9371.00000 0.959006
9374.00000 0.95909
9377.00000 0.959266
9380.00000 0.959122
9383.00000 0.959437
9386.00000 0.959212
9389.00000 0.959507
9392.00000 0.959095
9395.00000 0.959648
9398.00000 0.959517
9401.00000 0.959802
9404.00000 0.959892
9407.00000 0.959704
9410.00000 0.959662
9413.00000 0.960115
9416.00000 0.960106
9419.00000 0.959885
9422.00000 0.959888
9425.00000 0.959818
9428.00000 0.960338
9431.00000 0.960312
9434.00000 0.960144
9437.00000 0.960139
9440.00000 0.960596
9443.00000 0.960504
9446.00000 0.960701
9449.00000 0.960411
9452.00000 0.960926
9455.00000 0.960306
9458.00000 0.961052
9461.00000 0.960741
9464.00000 0.961017
9467.00000 0.961331
9470.00000 0.9607
9473.00000 0.960732
9476.00000 0.960846
9479.00000 0.961001
9482.00000 0.960848
9485.00000 0.961313
9488.00000 0.96102
9491.00000 0.961695
9494.00000 0.961438
9497.00000 0.961624
9500.00000 0.961883
9503.00000 0.962049
9506.00000 0.961301
9509.00000 0.961487
9512.00000 0.961757
9515.00000 0.961568
9518.00000 0.961949
9521.00000 0.961565
9524.00000 0.961579
9527.00000 0.961416
9530.00000 0.961612
9533.00000 0.961696
9536.00000 0.962134
9539.00000 0.962144
9542.00000 0.962155
9545.00000 0.96224
9548.00000 0.962613
9551.00000 0.96215
9554.00000 0.962349
9557.00000 0.96248
9560.00000 0.962235
9563.00000 0.9624
9566.00000 0.962277
9569.00000 0.96245
9572.00000 0.962486
9575.00000 0.962645
9578.00000 0.962399
9581.00000 0.962725
9584.00000 0.962739
9587.00000 0.962813
9590.00000 0.962912
9593.00000 0.963002
9596.00000 0.963
9599.00000 0.962835
9602.00000 0.962985
9605.00000 0.962918
9608.00000 0.962693
9611.00000 0.96282
9614.00000 0.962966
9617.00000 0.962987
9620.00000 0.963101
9623.00000 0.963379
9626.00000 0.963112
9629.00000 0.96324
9632.00000 0.963401
9635.00000 0.963087
9638.00000 0.963533
9641.00000 0.96349
9644.00000 0.963386
9647.00000 0.963422
9650.00000 0.96325
9653.00000 0.963458
9656.00000 0.963063
9659.00000 0.963583
9662.00000 0.963496
9665.00000 0.963804
9668.00000 0.963521
9671.00000 0.963522
9674.00000 0.963971
9677.00000 0.963912
9680.00000 0.963877
9683.00000 0.96393
9686.00000 0.964122
9689.00000 0.964053
9692.00000 0.964152
9695.00000 0.963748
9698.00000 0.963964
9701.00000 0.963767
9704.00000 0.963848
9707.00000 0.964053
9710.00000 0.964382
9713.00000 0.964066
9716.00000 0.964111
9719.00000 0.964219
9722.00000 0.964372
9725.00000 0.964243
9728.00000 0.964543
9731.00000 0.964587
9734.00000 0.964344
9737.00000 0.964464
9740.00000 0.964225
9743.00000 0.964605
9746.00000 0.964218
9749.00000 0.964385
9752.00000 0.964365
9755.00000 0.964521
9758.00000 0.964183
9761.00000 0.964653
9764.00000 0.964807
9767.00000 0.964729
9770.00000 0.964854
9773.00000 0.964565
9776.00000 0.964765
9779.00000 0.964756
9782.00000 0.964748
9785.00000 0.964797
9788.00000 0.965184
9791.00000 0.964877
9794.00000 0.965256
9797.00000 0.964952
9800.00000 0.965071
9803.00000 0.965041
9806.00000 0.96498
9809.00000 0.965186
9812.00000 0.965131
9815.00000 0.964931
9818.00000 0.965205
9821.00000 0.965013
9824.00000 0.965014
9827.00000 0.965191
9830.00000 0.965225
9833.00000 0.96538
9836.00000 0.965442
9839.00000 0.965796
9842.00000 0.965687
9845.00000 0.965643
9848.00000 0.965487
9851.00000 0.965302
9854.00000 0.965633
9857.00000 0.96552
9860.00000 0.96559
9863.00000 0.965462
9866.00000 0.965568
9869.00000 0.965498
9872.00000 0.965656
9875.00000 0.965551
9878.00000 0.965887
9881.00000 0.965582
9884.00000 0.965912
9887.00000 0.965959
9890.00000 0.965894
9893.00000 0.966103
9896.00000 0.965804
9899.00000 0.965725
9902.00000 0.965771
9905.00000 0.965742
9908.00000 0.965656
9911.00000 0.965846
9914.00000 0.96544
9917.00000 0.966006
9920.00000 0.96627
9923.00000 0.965971
9926.00000 0.966061
9929.00000 0.966026
9932.00000 0.966237
9935.00000 0.966419
9938.00000 0.966257
9941.00000 0.96574
9944.00000 0.9662
9947.00000 0.965988
9950.00000 0.966347
9953.00000 0.965878
9956.00000 0.966152
9959.00000 0.966082
9962.00000 0.966186
9965.00000 0.966348
9968.00000 0.96622
9971.00000 0.966226
9974.00000 0.966646
9977.00000 0.966432
9980.00000 0.966581
9983.00000 0.966757
9986.00000 0.966383
9989.00000 0.966483
9992.00000 0.966573
9995.00000 0.966511
9998.00000 0.966641
10001.00000 0.966818
10004.00000 0.966439
10007.00000 0.966599
10010.00000 0.966129
10013.00000 0.966405
10016.00000 0.966604
10019.00000 0.966392
10022.00000 0.967144
10025.00000 0.966702
10028.00000 0.96633
10031.00000 0.966255
10034.00000 0.966728
10037.00000 0.966737
10040.00000 0.966718
10043.00000 0.966129
10046.00000 0.966851
10049.00000 0.96659
10052.00000 0.966881
10055.00000 0.966648
10058.00000 0.966299
10061.00000 0.966606
10064.00000 0.966546
10067.00000 0.966864
10070.00000 0.966801
10073.00000 0.966875
10076.00000 0.966801
10079.00000 0.966724
10082.00000 0.967049
10085.00000 0.967049
10088.00000 0.966562
10091.00000 0.966609
10094.00000 0.966607
10097.00000 0.967016
10100.00000 0.966868
10103.00000 0.966968
10106.00000 0.967017
10109.00000 0.966781
10112.00000 0.96688
10115.00000 0.966923
10118.00000 0.966894
10121.00000 0.967172
10124.00000 0.966631
10127.00000 0.966293
10130.00000 0.966823
10133.00000 0.966783
10136.00000 0.96696
10139.00000 0.9669
10142.00000 0.967074
10145.00000 0.966954
10148.00000 0.967083
10151.00000 0.967107
10154.00000 0.966935
10157.00000 0.966858
10160.00000 0.966987
10163.00000 0.966702
10166.00000 0.96673
10169.00000 0.966537
10172.00000 0.96682
10175.00000 0.967049
10178.00000 0.966812
10181.00000 0.966959
10184.00000 0.966855
10187.00000 0.967241
10190.00000 0.966769
10193.00000 0.967206
10196.00000 0.967094
10199.00000 0.966939
10202.00000 0.966882
10205.00000 0.966856
10208.00000 0.96685
10211.00000 0.966959
10214.00000 0.966893
10217.00000 0.966808
10220.00000 0.967088
10223.00000 0.966912
10226.00000 0.966765
10229.00000 0.967127
10232.00000 0.967014
10235.00000 0.966927
10238.00000 0.966963
10241.00000 0.967017
10244.00000 0.967129
10247.00000 0.967096
10250.00000 0.966736
10253.00000 0.966653
10256.00000 0.966534
10259.00000 0.967064
10262.00000 0.966633
10265.00000 0.967026
10268.00000 0.966754
10271.00000 0.967165
10274.00000 0.966845
10277.00000 0.966961
10280.00000 0.96672
10283.00000 0.967028
10286.00000 0.966635
10289.00000 0.966823
10292.00000 0.967449
10295.00000 0.96701
10298.00000 0.966948
10301.00000 0.966625
10304.00000 0.966805
10307.00000 0.966669
10310.00000 0.966658
10313.00000 0.966738
10316.00000 0.967023
10319.00000 0.966567
10322.00000 0.96702
10325.00000 0.96662
10328.00000 0.966871
10331.00000 0.966904
10334.00000 0.966502
10337.00000 0.967087
10340.00000 0.966257
10343.00000 0.966634
10346.00000 0.966776
10349.00000 0.966677
10352.00000 0.966266
10355.00000 0.966722
10358.00000 0.966433
10361.00000 0.966674
10364.00000 0.96667
10367.00000 0.966588
10370.00000 0.966798
10373.00000 0.966705
10376.00000 0.967
10379.00000 0.966549
10382.00000 0.966633
10385.00000 0.966562
10388.00000 0.966646
10391.00000 0.966907
10394.00000 0.966462
10397.00000 0.966076
10400.00000 0.966664
10403.00000 0.966087
10406.00000 0.966299
10409.00000 0.966182
10412.00000 0.966274
10415.00000 0.966431
10418.00000 0.966379
10421.00000 0.965969
10424.00000 0.966374
10427.00000 0.96634
10430.00000 0.966061
10433.00000 0.966238
10436.00000 0.965947
10439.00000 0.966336
10442.00000 0.966112
10445.00000 0.966303
10448.00000 0.966014
10451.00000 0.966472
10454.00000 0.965988
10457.00000 0.966205
10460.00000 0.966321
10463.00000 0.966225
10466.00000 0.966324
10469.00000 0.966257
10472.00000 0.966171
10475.00000 0.96595
10478.00000 0.966003
10481.00000 0.966125
10484.00000 0.965865
10487.00000 0.965816
10490.00000 0.966304
10493.00000 0.966135
10496.00000 0.966054
10499.00000 0.965904
10502.00000 0.965921
10505.00000 0.966041
10508.00000 0.965957
10511.00000 0.965851
10514.00000 0.965824
10517.00000 0.9657
10520.00000 0.965644
10523.00000 0.966035
10526.00000 0.965508
10529.00000 0.965689
10532.00000 0.965641
10535.00000 0.965696
10538.00000 0.965359
10541.00000 0.965334
10544.00000 0.965339
10547.00000 0.965559
10550.00000 0.965668
10553.00000 0.965791
10556.00000 0.965236
10559.00000 0.965353
10562.00000 0.965449
10565.00000 0.96494
10568.00000 0.965502
10571.00000 0.965199
10574.00000 0.965334
10577.00000 0.9651
10580.00000 0.965187
10583.00000 0.965384
10586.00000 0.965303
10589.00000 0.965141
10592.00000 0.965014
10595.00000 0.965109
10598.00000 0.964763
10601.00000 0.964806
10604.00000 0.964808
10607.00000 0.964856
10610.00000 0.964632
10613.00000 0.965037
10616.00000 0.96464
10619.00000 0.964807
10622.00000 0.964561
10625.00000 0.96536
10628.00000 0.964861
10631.00000 0.96484
10634.00000 0.964734
10637.00000 0.965157
10640.00000 0.964736
10643.00000 0.964381
10646.00000 0.964431
10649.00000 0.964586
10652.00000 0.964468
10655.00000 0.964453
10658.00000 0.964518
10661.00000 0.964508
10664.00000 0.96441
10667.00000 0.964247
10670.00000 0.964266
10673.00000 0.96413
10676.00000 0.96445
10679.00000 0.964714
10682.00000 0.964113
10685.00000 0.964519
10688.00000 0.963711
10691.00000 0.964259
10694.00000 0.963804
10697.00000 0.963731
10700.00000 0.963916
10703.00000 0.963952
10706.00000 0.963664
10709.00000 0.963676
10712.00000 0.963887
10715.00000 0.963667
10718.00000 0.96387
10721.00000 0.963808
10724.00000 0.96403
10727.00000 0.963697
10730.00000 0.963638
10733.00000 0.963559
10736.00000 0.963757
10739.00000 0.963158
10742.00000 0.96334
10745.00000 0.962803
10748.00000 0.963329
10751.00000 0.963179
10754.00000 0.963105
10757.00000 0.963052
10760.00000 0.963673
10763.00000 0.963265
10766.00000 0.963195
10769.00000 0.963127
10772.00000 0.96314
10775.00000 0.963498
10778.00000 0.963217
10781.00000 0.96306
10784.00000 0.962579
10787.00000 0.962797
10790.00000 0.962579
10793.00000 0.962374
10796.00000 0.962361
10799.00000 0.962692
10802.00000 0.962576
10805.00000 0.962312
10808.00000 0.962351
10811.00000 0.9623
10814.00000 0.963057
10817.00000 0.962721
10820.00000 0.962056
10823.00000 0.961902
10826.00000 0.962258
10829.00000 0.962321
10832.00000 0.962238
10835.00000 0.961963
10838.00000 0.962285
10841.00000 0.962293
10844.00000 0.962118
10847.00000 0.961972
10850.00000 0.961928
10853.00000 0.961912
10856.00000 0.962104
10859.00000 0.961733
10862.00000 0.961579
10865.00000 0.962043
10868.00000 0.961434
10871.00000 0.961619
10874.00000 0.961232
10877.00000 0.961483
10880.00000 0.961508
10883.00000 0.961309
10886.00000 0.961401
10889.00000 0.961399
10892.00000 0.961273
10895.00000 0.96147
10898.00000 0.961192
10901.00000 0.961241
10904.00000 0.960875
10907.00000 0.96106
10910.00000 0.960888
10913.00000 0.960835
10916.00000 0.960931
10919.00000 0.960638
10922.00000 0.960738
10925.00000 0.960697
10928.00000 0.960735
10931.00000 0.960458
10934.00000 0.960731
10937.00000 0.960928
10940.00000 0.960432
10943.00000 0.960119
10946.00000 0.960219
10949.00000 0.960339
10952.00000 0.959877
10955.00000 0.959729
10958.00000 0.959836
10961.00000 0.959753
10964.00000 0.959819
10967.00000 0.959872
10970.00000 0.960006
10973.00000 0.960077
10976.00000 0.959936
10979.00000 0.959473
10982.00000 0.959776
10985.00000 0.959963
10988.00000 0.959572
10991.00000 0.959317
10994.00000 0.95935
10997.00000 0.95901
11000.00000 0.959208
12100.00000 0.0
