# %ECSV 0.9
# ---
# datatype:
# - {name: wavelength, unit: Angstrom, datatype: float32}
# - {name: response, datatype: float32}
# meta: !!omap
# - {band_name: ESO1037}
# - {group_name: FORS1}
wavelength response
6259.50000 0.0
6955.00000 0.00401
6960.00000 0.0049
6965.00000 0.00595
6970.00000 0.00717
6975.00000 0.0086
6980.00000 0.01023
6985.00000 0.01211
6990.00000 0.01425
6995.00000 0.01671
7000.00000 0.01956
7005.00000 0.02269
7010.00000 0.02612
7015.00000 0.02985
7020.00000 0.03401
7025.00000 0.03865
7030.00000 0.04375
7035.00000 0.04938
7040.00000 0.05538
7045.00000 0.06186
7050.00000 0.06881
7055.00000 0.07628
7060.00000 0.08433
7065.00000 0.09279
7070.00000 0.10176
7075.00000 0.11114
7080.00000 0.12096
7085.00000 0.13127
7090.00000 0.14206
7095.00000 0.15337
7100.00000 0.16531
7105.00000 0.17748
7110.00000 0.18975
7115.00000 0.20224
7120.00000 0.21492
7125.00000 0.22793
7130.00000 0.24139
7135.00000 0.25517
7140.00000 0.26908
7145.00000 0.28313
7150.00000 0.29755
7155.00000 0.31223
7160.00000 0.32681
7165.00000 0.34156
7170.00000 0.35602
7175.00000 0.37048
7180.00000 0.38507
7185.00000 0.39972
7190.00000 0.41427
7195.00000 0.42885
7200.00000 0.44307
7205.00000 0.45707
7210.00000 0.47119
7215.00000 0.48516
7220.00000 0.49912
7225.00000 0.51255
7230.00000 0.52564
7235.00000 0.53863
7240.00000 0.55109
7245.00000 0.56377
7250.00000 0.57613
7255.00000 0.58833
7260.00000 0.6002
7265.00000 0.61201
7270.00000 0.62325
7275.00000 0.6345
7280.00000 0.64549
7285.00000 0.65632
7290.00000 0.6669
7295.00000 0.67677
7300.00000 0.68666
7305.00000 0.69631
7310.00000 0.70567
7315.00000 0.71493
7320.00000 0.72406
7325.00000 0.73277
7330.00000 0.74115
7335.00000 0.74914
7340.00000 0.75687
7345.00000 0.76453
7350.00000 0.7723
7355.00000 0.77972
7360.00000 0.78679
7365.00000 0.79375
7370.00000 0.80058
7375.00000 0.80712
7380.00000 0.81367
7385.00000 0.81986
7390.00000 0.8258
7395.00000 0.8315
7400.00000 0.83699
7405.00000 0.84254
7410.00000 0.84764
7415.00000 0.85282
7420.00000 0.85764
7425.00000 0.86218
7430.00000 0.86655
7435.00000 0.87075
7440.00000 0.87486
7445.00000 0.87855
7450.00000 0.88243
7455.00000 0.88587
7460.00000 0.88935
7465.00000 0.89231
7470.00000 0.89525
7475.00000 0.89794
7480.00000 0.9008
7485.00000 0.90314
7490.00000 0.90546
7495.00000 0.90744
7500.00000 0.90944
7505.00000 0.91121
7510.00000 0.91291
7515.00000 0.91404
7520.00000 0.91547
7525.00000 0.91667
7530.00000 0.91781
7535.00000 0.91843
7540.00000 0.91933
7545.00000 0.92
7550.00000 0.92038
7555.00000 0.92058
7560.00000 0.92087
7565.00000 0.92118
7570.00000 0.92131
7575.00000 0.92112
7585.00000 0.92139
7590.00000 0.92077
7595.00000 0.92087
7600.00000 0.92068
7610.00000 0.92033
7615.00000 0.91973
7620.00000 0.91951
7630.00000 0.91924
7635.00000 0.9187
7640.00000 0.91884
7645.00000 0.91817
7655.00000 0.91804
7665.00000 0.91819
7670.00000 0.91795
7675.00000 0.91816
7680.00000 0.91847
7685.00000 0.91833
7690.00000 0.91856
7695.00000 0.91912
7700.00000 0.91982
7705.00000 0.91999
7710.00000 0.92068
7715.00000 0.92125
7720.00000 0.92213
7725.00000 0.92302
7730.00000 0.92401
7735.00000 0.9249
7740.00000 0.92578
7745.00000 0.92684
7750.00000 0.92793
7755.00000 0.92876
7760.00000 0.93019
7765.00000 0.93129
7770.00000 0.93256
7775.00000 0.93408
7780.00000 0.93504
7785.00000 0.93641
7790.00000 0.93754
7795.00000 0.93924
7800.00000 0.94072
7805.00000 0.94185
7810.00000 0.94341
7815.00000 0.9444
7820.00000 0.94578
7825.00000 0.94692
7830.00000 0.94806
7835.00000 0.94919
7840.00000 0.95028
7845.00000 0.95123
7850.00000 0.95232
7855.00000 0.95311
7860.00000 0.95376
7865.00000 0.95469
7870.00000 0.95525
7875.00000 0.95565
7880.00000 0.95637
7885.00000 0.95689
7890.00000 0.95725
7905.00000 0.95758
7910.00000 0.95779
7915.00000 0.95763
7920.00000 0.95748
7925.00000 0.95723
7930.00000 0.95765
7935.00000 0.9572
7940.00000 0.95668
7945.00000 0.95587
7950.00000 0.95534
7955.00000 0.95511
7960.00000 0.9544
7965.00000 0.95363
7970.00000 0.95317
7975.00000 0.95253
7980.00000 0.95208
7985.00000 0.95117
7990.00000 0.95078
7995.00000 0.94901
8000.00000 0.94724
8005.00000 0.94669
8010.00000 0.94614
8015.00000 0.94569
8020.00000 0.94523
8025.00000 0.94482
8030.00000 0.94441
8035.00000 0.94387
8040.00000 0.94334
8045.00000 0.94303
8050.00000 0.94272
8055.00000 0.94226
8060.00000 0.9418
8065.00000 0.94146
8070.00000 0.94112
8075.00000 0.94078
8080.00000 0.94043
8085.00000 0.94
8090.00000 0.93956
8095.00000 0.93932
8100.00000 0.93908
8105.00000 0.93875
8110.00000 0.93842
8115.00000 0.93819
8120.00000 0.93796
8125.00000 0.93773
8130.00000 0.93749
8135.00000 0.93731
8140.00000 0.93713
8145.00000 0.93685
8150.00000 0.93657
8155.00000 0.93644
8160.00000 0.93632
8165.00000 0.93614
8170.00000 0.93597
8175.00000 0.93572
8180.00000 0.93546
8185.00000 0.93533
8190.00000 0.93521
8195.00000 0.93496
8200.00000 0.93471
8205.00000 0.93453
8210.00000 0.93434
8215.00000 0.93409
8220.00000 0.93384
8225.00000 0.93363
8230.00000 0.93342
8235.00000 0.93318
8240.00000 0.93294
8245.00000 0.93268
8250.00000 0.93241
8255.00000 0.93205
8260.00000 0.93169
8265.00000 0.93138
8270.00000 0.93108
8275.00000 0.93068
8280.00000 0.93028
8285.00000 0.92988
8290.00000 0.92948
8295.00000 0.92906
8300.00000 0.92864
8305.00000 0.92816
8310.00000 0.92768
8315.00000 0.92723
8320.00000 0.92679
8325.00000 0.92625
8330.00000 0.92571
8335.00000 0.92513
8340.00000 0.92454
8345.00000 0.92402
8350.00000 0.92349
8355.00000 0.92291
8360.00000 0.92232
8365.00000 0.9217
8370.00000 0.92107
8375.00000 0.92055
8380.00000 0.92002
8385.00000 0.91935
8390.00000 0.91868
8395.00000 0.91827
8400.00000 0.91786
8405.00000 0.91729
8410.00000 0.91673
8415.00000 0.91643
8420.00000 0.91612
8425.00000 0.91575
8430.00000 0.91537
8435.00000 0.91512
8440.00000 0.91486
8445.00000 0.91474
8450.00000 0.91462
8455.00000 0.91451
8460.00000 0.91441
8465.00000 0.91409
8470.00000 0.91378
8480.00000 0.91366
8485.00000 0.91321
8490.00000 0.91275
8495.00000 0.91208
8500.00000 0.91141
8505.00000 0.91019
8510.00000 0.90896
8515.00000 0.90711
8520.00000 0.90526
8525.00000 0.90215
8530.00000 0.89905
8535.00000 0.89474
8540.00000 0.89043
8545.00000 0.88474
8550.00000 0.87905
8555.00000 0.87127
8560.00000 0.86349
8565.00000 0.8533
8570.00000 0.84311
8575.00000 0.83095
8580.00000 0.81879
8585.00000 0.80424
8590.00000 0.78969
8595.00000 0.7714
8600.00000 0.75311
8605.00000 0.73406
8610.00000 0.715
8615.00000 0.6923
8620.00000 0.66959
8625.00000 0.64584
8630.00000 0.62208
8635.00000 0.59565
8640.00000 0.56922
8645.00000 0.54311
8650.00000 0.51701
8655.00000 0.48989
8660.00000 0.46276
8665.00000 0.43579
8670.00000 0.40881
8675.00000 0.38344
8680.00000 0.35806
8685.00000 0.33314
8690.00000 0.30822
8695.00000 0.28553
8700.00000 0.26284
8705.00000 0.24298
8710.00000 0.22312
8715.00000 0.2046
8720.00000 0.18608
8725.00000 0.17037
8730.00000 0.15465
8735.00000 0.14121
8740.00000 0.12777
8745.00000 0.1168
8750.00000 0.10584
8755.00000 0.09622
8760.00000 0.0866
8765.00000 0.07912
8770.00000 0.07164
8775.00000 0.0653
8780.00000 0.05896
8785.00000 0.05367
8790.00000 0.04837
8795.00000 0.04439
8800.00000 0.0404
8805.00000 0.03692
8810.00000 0.03344
8815.00000 0.03066
8820.00000 0.02787
8825.00000 0.02561
8830.00000 0.02335
8835.00000 0.02152
8840.00000 0.0197
8845.00000 0.01813
8850.00000 0.01657
8855.00000 0.01529
8860.00000 0.01401
8865.00000 0.01301
8870.00000 0.01201
8875.00000 0.01113
8880.00000 0.01025
8885.00000 0.00954
8890.00000 0.00883
8895.00000 0.00823
8900.00000 0.00763
8905.00000 0.00712
8910.00000 0.00661
8915.00000 0.00617
8920.00000 0.00573
8925.00000 0.00537
8930.00000 0.005
8935.00000 0.0047
8940.00000 0.00441
8945.00000 0.00412
9839.50000 0.0
