# %ECSV 0.9
# ---
# datatype:
# - {name: wavelength, unit: Angstrom, datatype: float32}
# - {name: response, datatype: float32}
# meta: !!omap
# - {band_name: ESO1036}
# - {group_name: FORS1}
wavelength response
5022.00000 0.0
5580.00000 0.00529
5585.00000 0.00753
5590.00000 0.01054
5595.00000 0.01453
5600.00000 0.01964
5605.00000 0.02589
5610.00000 0.03354
5615.00000 0.04287
5620.00000 0.05401
5625.00000 0.06707
5630.00000 0.08207
5635.00000 0.09882
5640.00000 0.11738
5645.00000 0.13777
5650.00000 0.15946
5655.00000 0.18289
5660.00000 0.20741
5665.00000 0.23304
5670.00000 0.25922
5675.00000 0.28549
5680.00000 0.31216
5685.00000 0.33909
5690.00000 0.36558
5695.00000 0.39247
5700.00000 0.41746
5705.00000 0.44257
5710.00000 0.46635
5715.00000 0.48958
5720.00000 0.51176
5725.00000 0.53324
5730.00000 0.55372
5735.00000 0.57301
5740.00000 0.59117
5745.00000 0.60841
5750.00000 0.62486
5755.00000 0.64004
5760.00000 0.6546
5765.00000 0.66804
5770.00000 0.68062
5775.00000 0.69213
5780.00000 0.70321
5785.00000 0.71326
5790.00000 0.72262
5795.00000 0.73169
5800.00000 0.73978
5805.00000 0.74743
5810.00000 0.75448
5815.00000 0.76076
5820.00000 0.76676
5825.00000 0.7722
5830.00000 0.77724
5835.00000 0.78191
5840.00000 0.78632
5845.00000 0.79024
5850.00000 0.7941
5855.00000 0.79765
5860.00000 0.80072
5865.00000 0.80376
5870.00000 0.80662
5875.00000 0.80894
5880.00000 0.8114
5885.00000 0.81337
5890.00000 0.81513
5895.00000 0.81695
5900.00000 0.81843
5905.00000 0.81974
5910.00000 0.82112
5915.00000 0.82235
5920.00000 0.8235
5925.00000 0.82411
5930.00000 0.82486
5935.00000 0.82562
5940.00000 0.82621
5945.00000 0.82686
5950.00000 0.82717
5955.00000 0.82765
5960.00000 0.828
5965.00000 0.82847
5975.00000 0.82868
6005.00000 0.82885
6010.00000 0.82866
6015.00000 0.82849
6020.00000 0.82818
6030.00000 0.82779
6035.00000 0.8274
6040.00000 0.82713
6045.00000 0.82671
6050.00000 0.82643
6055.00000 0.82614
6060.00000 0.82552
6065.00000 0.825
6070.00000 0.82449
6075.00000 0.82384
6080.00000 0.82352
6085.00000 0.82292
6090.00000 0.82225
6095.00000 0.82157
6100.00000 0.82108
6105.00000 0.82052
6110.00000 0.81997
6115.00000 0.81907
6120.00000 0.81833
6125.00000 0.81764
6130.00000 0.81687
6135.00000 0.81607
6140.00000 0.81538
6145.00000 0.81462
6150.00000 0.81382
6155.00000 0.81304
6160.00000 0.8122
6165.00000 0.81128
6170.00000 0.81051
6175.00000 0.8098
6180.00000 0.80849
6185.00000 0.80771
6190.00000 0.80664
6195.00000 0.80573
6200.00000 0.80499
6205.00000 0.80395
6210.00000 0.80291
6215.00000 0.80184
6220.00000 0.80077
6225.00000 0.79976
6230.00000 0.79864
6235.00000 0.79754
6240.00000 0.79662
6245.00000 0.79541
6250.00000 0.79432
6255.00000 0.7934
6260.00000 0.792
6265.00000 0.79096
6270.00000 0.78987
6275.00000 0.7888
6280.00000 0.7876
6285.00000 0.78637
6290.00000 0.78525
6295.00000 0.78408
6300.00000 0.78276
6305.00000 0.78156
6310.00000 0.78034
6315.00000 0.77907
6320.00000 0.77781
6325.00000 0.77662
6330.00000 0.7755
6335.00000 0.77415
6340.00000 0.77283
6345.00000 0.7714
6350.00000 0.77015
6355.00000 0.7688
6360.00000 0.76745
6365.00000 0.76632
6370.00000 0.76504
6375.00000 0.76356
6380.00000 0.76219
6385.00000 0.76085
6390.00000 0.75937
6395.00000 0.758
6400.00000 0.75672
6405.00000 0.75535
6410.00000 0.75386
6415.00000 0.75272
6420.00000 0.75124
6425.00000 0.74952
6430.00000 0.74807
6435.00000 0.74658
6440.00000 0.74525
6445.00000 0.74361
6450.00000 0.74216
6455.00000 0.74059
6460.00000 0.73918
6465.00000 0.73758
6470.00000 0.73611
6475.00000 0.73466
6480.00000 0.73311
6485.00000 0.73166
6490.00000 0.73001
6495.00000 0.72841
6500.00000 0.72692
6505.00000 0.72552
6510.00000 0.72386
6515.00000 0.72232
6520.00000 0.72067
6525.00000 0.71893
6530.00000 0.71755
6535.00000 0.71585
6540.00000 0.7142
6545.00000 0.71269
6550.00000 0.71109
6555.00000 0.70936
6560.00000 0.70772
6565.00000 0.70622
6570.00000 0.70442
6575.00000 0.7029
6580.00000 0.7013
6585.00000 0.69969
6590.00000 0.69801
6595.00000 0.69638
6600.00000 0.69479
6605.00000 0.69304
6610.00000 0.69124
6615.00000 0.68955
6620.00000 0.68784
6625.00000 0.6863
6630.00000 0.68447
6635.00000 0.6828
6640.00000 0.6812
6645.00000 0.67961
6650.00000 0.67765
6655.00000 0.67593
6660.00000 0.6743
6665.00000 0.67248
6670.00000 0.67079
6675.00000 0.6691
6680.00000 0.66696
6685.00000 0.66544
6690.00000 0.66358
6695.00000 0.66184
6700.00000 0.66008
6705.00000 0.65832
6710.00000 0.65634
6715.00000 0.65467
6720.00000 0.65289
6725.00000 0.65102
6730.00000 0.64927
6735.00000 0.64732
6740.00000 0.6454
6745.00000 0.64354
6750.00000 0.64144
6755.00000 0.63955
6760.00000 0.63768
6765.00000 0.6359
6770.00000 0.63367
6775.00000 0.63181
6780.00000 0.62974
6785.00000 0.62765
6790.00000 0.62574
6795.00000 0.62358
6800.00000 0.62146
6805.00000 0.61947
6810.00000 0.61751
6815.00000 0.61541
6820.00000 0.61319
6825.00000 0.61127
6830.00000 0.60883
6835.00000 0.6068
6840.00000 0.60472
6845.00000 0.60246
6850.00000 0.60045
6855.00000 0.59831
6860.00000 0.59602
6865.00000 0.59386
6870.00000 0.59164
6875.00000 0.58955
6880.00000 0.58731
6885.00000 0.58514
6890.00000 0.58281
6895.00000 0.58061
6900.00000 0.57844
6905.00000 0.57627
6910.00000 0.57414
6915.00000 0.5719
6920.00000 0.5696
6925.00000 0.56749
6930.00000 0.56536
6935.00000 0.56299
6940.00000 0.56075
6945.00000 0.55856
6950.00000 0.55613
6955.00000 0.55381
6960.00000 0.55163
6965.00000 0.54938
6970.00000 0.54708
6975.00000 0.54472
6980.00000 0.5426
6985.00000 0.54019
6990.00000 0.53791
6995.00000 0.53577
7000.00000 0.53344
7005.00000 0.53106
7010.00000 0.5288
7015.00000 0.52647
7020.00000 0.52432
7025.00000 0.52203
7030.00000 0.51983
7035.00000 0.51745
7040.00000 0.51501
7045.00000 0.51282
7050.00000 0.5106
7055.00000 0.50831
7060.00000 0.50593
7065.00000 0.50365
7070.00000 0.50127
7075.00000 0.49904
7080.00000 0.49682
7085.00000 0.4945
7090.00000 0.49216
7095.00000 0.48982
7100.00000 0.48764
7105.00000 0.4852
7110.00000 0.48282
7115.00000 0.48054
7120.00000 0.47833
7125.00000 0.47618
7130.00000 0.47401
7135.00000 0.47154
7140.00000 0.46924
7145.00000 0.46696
7150.00000 0.46473
7155.00000 0.46243
7160.00000 0.46008
7165.00000 0.45776
7170.00000 0.4555
7175.00000 0.45341
7180.00000 0.45114
7185.00000 0.44875
7190.00000 0.44645
7195.00000 0.44398
7200.00000 0.44185
7205.00000 0.4396
7210.00000 0.43732
7215.00000 0.43505
7220.00000 0.43271
7225.00000 0.43042
7230.00000 0.42826
7235.00000 0.42601
7240.00000 0.42371
7245.00000 0.42145
7250.00000 0.41931
7255.00000 0.41709
7260.00000 0.41465
7265.00000 0.41256
7270.00000 0.41028
7275.00000 0.40792
7280.00000 0.40581
7285.00000 0.40351
7290.00000 0.4014
7295.00000 0.39909
7300.00000 0.39684
7305.00000 0.39467
7310.00000 0.39246
7315.00000 0.39015
7320.00000 0.38792
7325.00000 0.3858
7330.00000 0.38347
7335.00000 0.3813
7340.00000 0.37908
7345.00000 0.37698
7350.00000 0.37483
7355.00000 0.37262
7360.00000 0.3703
7365.00000 0.36818
7370.00000 0.36608
7375.00000 0.36379
7380.00000 0.36161
7385.00000 0.35935
7390.00000 0.35719
7395.00000 0.35503
7400.00000 0.3528
7405.00000 0.35063
7410.00000 0.34851
7415.00000 0.34644
7420.00000 0.34422
7425.00000 0.34209
7430.00000 0.33992
7435.00000 0.33773
7440.00000 0.33559
7445.00000 0.33349
7450.00000 0.33131
7455.00000 0.3292
7460.00000 0.32709
7465.00000 0.32502
7470.00000 0.32291
7475.00000 0.32065
7480.00000 0.3186
7485.00000 0.31651
7490.00000 0.31438
7495.00000 0.31224
7500.00000 0.31015
7505.00000 0.30808
7510.00000 0.30609
7515.00000 0.30389
7520.00000 0.30191
7525.00000 0.2998
7530.00000 0.29769
7535.00000 0.2956
7540.00000 0.29353
7545.00000 0.29153
7550.00000 0.28951
7555.00000 0.28746
7560.00000 0.28551
7565.00000 0.28351
7570.00000 0.28139
7575.00000 0.27944
7580.00000 0.2775
7585.00000 0.27547
7590.00000 0.27338
7595.00000 0.27148
7600.00000 0.26949
7605.00000 0.2675
7610.00000 0.2655
7615.00000 0.26349
7620.00000 0.26166
7625.00000 0.25967
7630.00000 0.25771
7635.00000 0.25571
7640.00000 0.25385
7645.00000 0.25191
7650.00000 0.24989
7655.00000 0.24807
7660.00000 0.24625
7665.00000 0.24436
7670.00000 0.24251
7675.00000 0.24059
7680.00000 0.23873
7685.00000 0.23687
7690.00000 0.23497
7695.00000 0.23313
7700.00000 0.23132
7705.00000 0.22943
7710.00000 0.22774
7715.00000 0.22592
7720.00000 0.22418
7725.00000 0.2223
7730.00000 0.22053
7735.00000 0.21876
7740.00000 0.21691
7745.00000 0.2152
7750.00000 0.21339
7755.00000 0.21164
7760.00000 0.20996
7765.00000 0.20811
7770.00000 0.20648
7775.00000 0.20485
7780.00000 0.20321
7785.00000 0.20157
7790.00000 0.19984
7795.00000 0.19814
7800.00000 0.19656
7805.00000 0.19479
7810.00000 0.19313
7815.00000 0.19157
7820.00000 0.18993
7825.00000 0.18829
7830.00000 0.18671
7835.00000 0.18503
7840.00000 0.18345
7845.00000 0.18192
7850.00000 0.18033
7855.00000 0.17878
7860.00000 0.17712
7865.00000 0.17567
7870.00000 0.17413
7875.00000 0.17255
7880.00000 0.1711
7885.00000 0.16965
7890.00000 0.16811
7895.00000 0.16663
7900.00000 0.1651
7905.00000 0.16369
7910.00000 0.16223
7915.00000 0.16075
7920.00000 0.15934
7925.00000 0.15785
7930.00000 0.15649
7935.00000 0.15506
7940.00000 0.15361
7945.00000 0.15218
7950.00000 0.15082
7955.00000 0.14945
7960.00000 0.14802
7965.00000 0.14668
7970.00000 0.14526
7975.00000 0.14398
7980.00000 0.14269
7985.00000 0.1413
7990.00000 0.13994
7995.00000 0.13787
8000.00000 0.1358
8005.00000 0.13462
8010.00000 0.13345
8015.00000 0.13224
8020.00000 0.13103
8025.00000 0.12983
8030.00000 0.12862
8035.00000 0.12748
8040.00000 0.12633
8045.00000 0.12514
8050.00000 0.12396
8055.00000 0.1228
8060.00000 0.12165
8065.00000 0.12052
8070.00000 0.11939
8075.00000 0.1183
8080.00000 0.11722
8085.00000 0.1161
8090.00000 0.11498
8095.00000 0.11384
8100.00000 0.11271
8105.00000 0.11167
8110.00000 0.11063
8115.00000 0.10955
8120.00000 0.10846
8125.00000 0.10741
8130.00000 0.10635
8135.00000 0.10532
8140.00000 0.10428
8145.00000 0.10325
8150.00000 0.10223
8155.00000 0.10123
8160.00000 0.10023
8165.00000 0.09923
8170.00000 0.09824
8175.00000 0.09728
8180.00000 0.09633
8185.00000 0.09532
8190.00000 0.09431
8195.00000 0.0934
8200.00000 0.09249
8205.00000 0.09157
8210.00000 0.09064
8215.00000 0.08969
8220.00000 0.08875
8225.00000 0.08785
8230.00000 0.08695
8235.00000 0.08607
8240.00000 0.08518
8245.00000 0.0843
8250.00000 0.08342
8255.00000 0.08254
8260.00000 0.08166
8265.00000 0.08083
8270.00000 0.08
8275.00000 0.07917
8280.00000 0.07833
8285.00000 0.07749
8290.00000 0.07665
8295.00000 0.07587
8300.00000 0.07508
8305.00000 0.07426
8310.00000 0.07344
8315.00000 0.07267
8320.00000 0.0719
8325.00000 0.07113
8330.00000 0.07036
8335.00000 0.06961
8340.00000 0.06886
8345.00000 0.06812
8350.00000 0.06738
8355.00000 0.06667
8360.00000 0.06596
8365.00000 0.06525
8370.00000 0.06455
8375.00000 0.06383
8380.00000 0.06311
8385.00000 0.06244
8390.00000 0.06176
8395.00000 0.0611
8400.00000 0.06044
8405.00000 0.05976
8410.00000 0.05908
8415.00000 0.05846
8420.00000 0.05784
8425.00000 0.0572
8430.00000 0.05655
8435.00000 0.05594
8440.00000 0.05533
8445.00000 0.0547
8450.00000 0.05408
8455.00000 0.0535
8460.00000 0.05292
8465.00000 0.05233
8470.00000 0.05175
8475.00000 0.05117
8480.00000 0.05059
8485.00000 0.05004
8490.00000 0.04949
8495.00000 0.04893
8500.00000 0.04837
8505.00000 0.04784
8510.00000 0.04731
8515.00000 0.04679
8520.00000 0.04627
8525.00000 0.04574
8530.00000 0.04522
8535.00000 0.04472
8540.00000 0.04421
8545.00000 0.04372
8550.00000 0.04323
8555.00000 0.04275
8560.00000 0.04226
8565.00000 0.04178
8570.00000 0.0413
8575.00000 0.04084
8580.00000 0.04038
8585.00000 0.03993
8590.00000 0.03948
8595.00000 0.03903
8600.00000 0.03857
8605.00000 0.03815
8610.00000 0.03773
8615.00000 0.03729
8620.00000 0.03685
8625.00000 0.03644
8630.00000 0.03603
8635.00000 0.03562
8640.00000 0.03521
8645.00000 0.03481
8650.00000 0.03441
8655.00000 0.03403
8660.00000 0.03364
8665.00000 0.03326
8670.00000 0.03287
8675.00000 0.03251
8680.00000 0.03215
8685.00000 0.03177
8690.00000 0.03139
8695.00000 0.03104
8700.00000 0.03068
8705.00000 0.03035
8710.00000 0.03001
8715.00000 0.02966
8720.00000 0.02931
8725.00000 0.02898
8730.00000 0.02865
8735.00000 0.02832
8740.00000 0.02799
8745.00000 0.02768
8750.00000 0.02737
8755.00000 0.02704
8760.00000 0.02671
8765.00000 0.02642
8770.00000 0.02613
8775.00000 0.02583
8780.00000 0.02552
8785.00000 0.02523
8790.00000 0.02493
8795.00000 0.02466
8800.00000 0.02439
8805.00000 0.0241
8810.00000 0.02381
8815.00000 0.02354
8820.00000 0.02326
8825.00000 0.023
8830.00000 0.02273
8835.00000 0.02247
8840.00000 0.02221
8845.00000 0.02196
8850.00000 0.02171
8855.00000 0.02145
8860.00000 0.0212
8865.00000 0.02096
8870.00000 0.02073
8875.00000 0.02049
8880.00000 0.02025
8885.00000 0.02002
8890.00000 0.01978
8895.00000 0.01956
8900.00000 0.01934
8905.00000 0.01912
8910.00000 0.0189
8915.00000 0.01868
8920.00000 0.01847
8925.00000 0.01825
8930.00000 0.01803
8935.00000 0.01783
8940.00000 0.01763
8945.00000 0.01742
8950.00000 0.01721
8955.00000 0.01703
8960.00000 0.01685
8965.00000 0.01665
8970.00000 0.01645
8975.00000 0.01626
8980.00000 0.01607
8985.00000 0.01589
8990.00000 0.01571
8995.00000 0.01554
9000.00000 0.01536
9005.00000 0.01518
9010.00000 0.015
9015.00000 0.01483
9020.00000 0.01465
9025.00000 0.01448
9030.00000 0.01431
9035.00000 0.01416
9040.00000 0.014
9045.00000 0.01384
9050.00000 0.01367
9055.00000 0.01352
9060.00000 0.01338
9065.00000 0.01322
9070.00000 0.01306
9075.00000 0.01291
9080.00000 0.01277
9085.00000 0.01263
9090.00000 0.01248
9095.00000 0.01234
9100.00000 0.0122
9105.00000 0.01206
9110.00000 0.01192
9115.00000 0.01179
9120.00000 0.01165
9125.00000 0.01152
9130.00000 0.01138
9135.00000 0.01125
9140.00000 0.01113
9145.00000 0.01101
9150.00000 0.01088
9155.00000 0.01076
9160.00000 0.01064
9165.00000 0.01051
9170.00000 0.01038
9175.00000 0.01028
9180.00000 0.01017
9185.00000 0.01005
9190.00000 0.00993
9195.00000 0.00981
9200.00000 0.0097
9205.00000 0.00959
9210.00000 0.00949
9215.00000 0.00939
9220.00000 0.00928
9225.00000 0.00918
9230.00000 0.00907
9235.00000 0.00897
9245.00000 0.00878
9250.00000 0.00868
9260.00000 0.00849
9270.00000 0.0083
9280.00000 0.00812
9285.00000 0.00802
9290.00000 0.00791
9300.00000 0.00777
9310.00000 0.00758
9320.00000 0.00743
9330.00000 0.00725
9340.00000 0.00709
9350.00000 0.00695
9360.00000 0.00681
9370.00000 0.00664
9380.00000 0.0065
9390.00000 0.00636
9400.00000 0.00623
9410.00000 0.00609
9420.00000 0.00596
9430.00000 0.00583
9440.00000 0.00571
9450.00000 0.00558
9460.00000 0.00546
9470.00000 0.00536
9480.00000 0.00523
9490.00000 0.00512
9500.00000 0.00501
9510.00000 0.00491
9520.00000 0.00481
9530.00000 0.00469
9545.00000 0.00456
9560.00000 0.00442
9570.00000 0.00431
9585.00000 0.00419
9600.00000 0.00408
10560.00000 0.0
