# %ECSV 0.9
# ---
# datatype:
# - {name: wavelength, unit: Angstrom, datatype: float32}
# - {name: response, datatype: float32}
# meta: !!omap
# - {band_name: ESO1077}
# - {group_name: FORS2}
wavelength response
6264.00000 0.0
6960.00000 0.00453
6965.00000 0.00553
6970.00000 0.00668
6975.00000 0.00805
6980.00000 0.00958
6985.00000 0.01142
6990.00000 0.0135
6995.00000 0.01584
7000.00000 0.01857
7005.00000 0.02158
7010.00000 0.02493
7015.00000 0.0286
7020.00000 0.03265
7025.00000 0.03718
7030.00000 0.04218
7035.00000 0.04761
7040.00000 0.05354
7045.00000 0.05989
7050.00000 0.06681
7055.00000 0.07424
7060.00000 0.08206
7065.00000 0.09049
7070.00000 0.09938
7075.00000 0.10863
7080.00000 0.11842
7085.00000 0.12877
7090.00000 0.13937
7095.00000 0.15069
7100.00000 0.16247
7105.00000 0.17467
7110.00000 0.18687
7115.00000 0.19922
7120.00000 0.21179
7125.00000 0.22477
7130.00000 0.23812
7135.00000 0.25193
7140.00000 0.26574
7145.00000 0.27997
7150.00000 0.29426
7155.00000 0.30873
7160.00000 0.32325
7165.00000 0.33796
7170.00000 0.35258
7175.00000 0.36715
7180.00000 0.38161
7185.00000 0.39639
7190.00000 0.4111
7195.00000 0.4255
7200.00000 0.43987
7205.00000 0.45412
7210.00000 0.4682
7215.00000 0.48229
7220.00000 0.4961
7225.00000 0.5097
7230.00000 0.52296
7235.00000 0.53577
7240.00000 0.54879
7245.00000 0.56135
7250.00000 0.57384
7255.00000 0.5865
7260.00000 0.59843
7265.00000 0.61017
7270.00000 0.62167
7275.00000 0.63314
7280.00000 0.64414
7285.00000 0.65478
7290.00000 0.66555
7295.00000 0.67597
7300.00000 0.68586
7305.00000 0.69566
7310.00000 0.70515
7315.00000 0.71444
7320.00000 0.72386
7325.00000 0.73247
7330.00000 0.74072
7335.00000 0.74902
7340.00000 0.75683
7345.00000 0.76449
7350.00000 0.77226
7355.00000 0.77948
7360.00000 0.78658
7365.00000 0.79359
7370.00000 0.80019
7375.00000 0.80664
7380.00000 0.81313
7385.00000 0.81926
7390.00000 0.82533
7395.00000 0.83075
7400.00000 0.83618
7405.00000 0.84161
7410.00000 0.84682
7415.00000 0.85169
7420.00000 0.85655
7425.00000 0.86111
7430.00000 0.86559
7435.00000 0.87007
7440.00000 0.87437
7445.00000 0.8783
7450.00000 0.88215
7455.00000 0.88617
7460.00000 0.88928
7465.00000 0.89297
7470.00000 0.8961
7475.00000 0.89938
7480.00000 0.9025
7485.00000 0.90532
7490.00000 0.90821
7495.00000 0.91075
7500.00000 0.91301
7505.00000 0.91557
7510.00000 0.91773
7515.00000 0.91996
7520.00000 0.92224
7525.00000 0.92443
7530.00000 0.92613
7535.00000 0.92793
7540.00000 0.92968
7545.00000 0.93134
7550.00000 0.93279
7555.00000 0.93413
7560.00000 0.93548
7565.00000 0.93675
7570.00000 0.93767
7575.00000 0.93931
7580.00000 0.94033
7585.00000 0.94101
7590.00000 0.94232
7595.00000 0.94318
7600.00000 0.94404
7605.00000 0.94486
7610.00000 0.94586
7615.00000 0.94643
7620.00000 0.94692
7625.00000 0.94779
7630.00000 0.94847
7635.00000 0.94921
7640.00000 0.94959
7645.00000 0.94999
7650.00000 0.95045
7655.00000 0.95069
7660.00000 0.95135
7670.00000 0.95223
7675.00000 0.95299
7685.00000 0.95331
7690.00000 0.95404
7695.00000 0.95433
7700.00000 0.95458
7705.00000 0.95494
7710.00000 0.95517
7715.00000 0.95581
7720.00000 0.95606
7730.00000 0.95664
7735.00000 0.95706
7740.00000 0.95775
7745.00000 0.95815
7750.00000 0.95838
7755.00000 0.95866
7760.00000 0.95909
7765.00000 0.95945
7770.00000 0.95997
7775.00000 0.96014
7780.00000 0.96053
7785.00000 0.96123
7790.00000 0.96152
7795.00000 0.96175
7800.00000 0.96199
7805.00000 0.96223
7810.00000 0.9624
7815.00000 0.96284
7820.00000 0.96326
7825.00000 0.96337
7830.00000 0.96373
7845.00000 0.96385
7850.00000 0.96437
7855.00000 0.96393
7870.00000 0.9642
7875.00000 0.96458
7880.00000 0.96448
7885.00000 0.96433
7890.00000 0.96389
7895.00000 0.964
7900.00000 0.96355
7915.00000 0.96314
7920.00000 0.96272
7925.00000 0.96254
7930.00000 0.96222
7935.00000 0.96196
7940.00000 0.96168
7945.00000 0.96082
7955.00000 0.96021
7960.00000 0.95987
7965.00000 0.95962
7970.00000 0.95867
7975.00000 0.9585
7980.00000 0.95774
7985.00000 0.95745
7990.00000 0.95678
7995.00000 0.95519
8000.00000 0.95359
8005.00000 0.9534
8010.00000 0.95322
8015.00000 0.95289
8020.00000 0.95257
8025.00000 0.95227
8030.00000 0.95197
8035.00000 0.9517
8040.00000 0.95142
8045.00000 0.95128
8050.00000 0.95114
8055.00000 0.95092
8060.00000 0.95071
8065.00000 0.95048
8075.00000 0.95016
8080.00000 0.95006
8085.00000 0.94992
8090.00000 0.94978
8130.00000 0.94966
8135.00000 0.94976
8150.00000 0.94994
8155.00000 0.95006
8165.00000 0.95026
8175.00000 0.95044
8180.00000 0.95054
8190.00000 0.95068
8195.00000 0.95082
8225.00000 0.95095
8235.00000 0.95077
8240.00000 0.95067
8245.00000 0.9505
8250.00000 0.95032
8255.00000 0.95008
8260.00000 0.94984
8265.00000 0.94947
8270.00000 0.94909
8275.00000 0.9488
8280.00000 0.94851
8285.00000 0.948
8290.00000 0.94749
8295.00000 0.94691
8300.00000 0.94633
8305.00000 0.94563
8310.00000 0.94493
8315.00000 0.94433
8320.00000 0.94373
8325.00000 0.94294
8330.00000 0.94215
8335.00000 0.94133
8340.00000 0.94052
8345.00000 0.93966
8350.00000 0.9388
8355.00000 0.93788
8360.00000 0.93697
8365.00000 0.93621
8370.00000 0.93545
8375.00000 0.93455
8380.00000 0.93365
8385.00000 0.93283
8390.00000 0.93201
8395.00000 0.93131
8400.00000 0.93062
8405.00000 0.92992
8410.00000 0.92923
8415.00000 0.92874
8420.00000 0.92825
8425.00000 0.92771
8430.00000 0.92717
8435.00000 0.92686
8440.00000 0.92655
8445.00000 0.9263
8450.00000 0.92605
8470.00000 0.9259
8475.00000 0.92607
8480.00000 0.92625
8485.00000 0.92648
8490.00000 0.92672
8495.00000 0.92698
8500.00000 0.92724
8505.00000 0.92741
8520.00000 0.92764
8525.00000 0.92743
8530.00000 0.92722
8535.00000 0.92668
8540.00000 0.92613
8545.00000 0.92505
8550.00000 0.92397
8555.00000 0.9222
8560.00000 0.92042
8565.00000 0.91789
8570.00000 0.91536
8575.00000 0.9118
8580.00000 0.90824
8585.00000 0.90353
8590.00000 0.89883
8595.00000 0.89264
8600.00000 0.88645
8605.00000 0.87899
8610.00000 0.87153
8615.00000 0.86202
8620.00000 0.85251
8625.00000 0.84155
8630.00000 0.8306
8635.00000 0.81811
8640.00000 0.80563
8645.00000 0.79099
8650.00000 0.77634
8655.00000 0.76026
8660.00000 0.74419
8665.00000 0.72674
8670.00000 0.70929
8675.00000 0.69063
8680.00000 0.67198
8685.00000 0.65169
8690.00000 0.63141
8695.00000 0.61112
8700.00000 0.59083
8705.00000 0.56987
8710.00000 0.54891
8715.00000 0.52724
8720.00000 0.50558
8725.00000 0.48517
8730.00000 0.46477
8735.00000 0.44389
8740.00000 0.42302
8745.00000 0.40356
8750.00000 0.3841
8755.00000 0.3657
8760.00000 0.34729
8765.00000 0.32971
8770.00000 0.31213
8775.00000 0.29585
8780.00000 0.27956
8785.00000 0.26458
8790.00000 0.24961
8795.00000 0.23652
8800.00000 0.22342
8805.00000 0.21095
8810.00000 0.19848
8815.00000 0.18757
8820.00000 0.17665
8825.00000 0.16699
8830.00000 0.15732
8835.00000 0.14849
8840.00000 0.13967
8845.00000 0.13205
8850.00000 0.12444
8855.00000 0.11763
8860.00000 0.11083
8865.00000 0.10487
8870.00000 0.09891
8875.00000 0.09351
8880.00000 0.0881
8885.00000 0.08365
8890.00000 0.07919
8895.00000 0.07507
8900.00000 0.07096
8905.00000 0.06721
8910.00000 0.06346
8915.00000 0.06039
8920.00000 0.05733
8925.00000 0.05448
8930.00000 0.05162
8935.00000 0.04911
8940.00000 0.0466
8945.00000 0.04439
8950.00000 0.04218
8955.00000 0.04021
8960.00000 0.03824
8965.00000 0.03649
8970.00000 0.03474
8975.00000 0.03321
8980.00000 0.03168
8985.00000 0.03028
8990.00000 0.02887
8995.00000 0.02759
9000.00000 0.02632
9005.00000 0.02521
9010.00000 0.0241
9015.00000 0.0231
9020.00000 0.0221
9025.00000 0.02116
9030.00000 0.02022
9035.00000 0.01943
9040.00000 0.01863
9045.00000 0.0179
9050.00000 0.01718
9055.00000 0.01652
9060.00000 0.01586
9065.00000 0.01524
9070.00000 0.01462
9075.00000 0.01408
9080.00000 0.01355
9085.00000 0.01307
9090.00000 0.01258
9095.00000 0.01212
9100.00000 0.01166
9105.00000 0.01127
9110.00000 0.01087
9115.00000 0.01049
9120.00000 0.0101
9125.00000 0.00976
9130.00000 0.00942
9135.00000 0.00911
9140.00000 0.0088
9145.00000 0.00851
9150.00000 0.00822
9155.00000 0.00795
9160.00000 0.00769
9165.00000 0.00746
9170.00000 0.00723
9175.00000 0.007
9180.00000 0.00678
9185.00000 0.00656
9190.00000 0.00634
9195.00000 0.00616
9200.00000 0.00597
9205.00000 0.00581
9210.00000 0.00565
9215.00000 0.00548
9220.00000 0.00531
9225.00000 0.00516
9230.00000 0.00501
9235.00000 0.00488
9240.00000 0.00476
9245.00000 0.00463
9250.00000 0.00449
9255.00000 0.00437
9260.00000 0.00425
9265.00000 0.00415
9270.00000 0.00404
10197.00000 0.0
