# %ECSV 0.9
# ---
# datatype:
# - {name: wavelength, unit: Angstrom, datatype: float32}
# - {name: response, datatype: float32}
# meta: !!omap
# - {band_name: SZ}
# - {group_name: ISAAC}
wavelength response
8662.32031 0.0
9624.79980 0.00458
9625.59961 0.003179
9626.40039 0.002898
9627.20020 9.8e-05
9628.00000 0.001775
9628.79980 0.001774
9629.59961 0.001772
9630.40039 0.00233
9631.20020 0.002328
9632.00000 0.002886
9632.79980 0.002884
9633.59961 0.002882
9634.40039 0.002881
9635.20020 0.002879
9636.00000 0.003157
9636.79980 0.003155
9637.59961 0.003154
9638.40039 0.003432
9639.20020 0.00343
9640.00000 0.003428
9640.79980 0.003706
9641.59961 0.003705
9642.40039 0.003983
9643.20020 0.003981
9644.00000 0.003979
9644.79980 0.003978
9645.59961 0.003976
9646.40039 0.003974
9647.20020 0.004252
9648.00000 0.00453
9648.79980 0.004528
9649.59961 0.004807
9650.40039 0.004805
9651.20020 0.005363
9652.00000 0.005081
9652.90039 0.005079
9653.59961 0.005078
9654.50000 0.005076
9655.20020 0.005074
9656.09961 0.005073
9656.90039 0.005351
9657.70020 0.005629
9658.50000 0.005627
9659.29980 0.005625
9660.09961 0.005903
9660.90039 0.006181
9661.70020 0.00618
9662.50000 0.006178
9663.29980 0.006176
9664.09961 0.006175
9664.90039 0.006173
9665.70020 0.006171
9666.50000 0.00617
9667.29980 0.006168
9668.09961 0.006166
9668.90039 0.006164
9669.70020 0.006163
9670.50000 0.006161
9671.29980 0.006159
9672.09961 0.006437
9672.90039 0.006436
9673.70020 0.006714
9674.50000 0.006712
9675.29980 0.00671
9676.09961 0.006988
9676.90039 0.006987
9677.70020 0.006985
9678.50000 0.006983
9679.29980 0.007261
9680.09961 0.00726
9680.90039 0.007258
9681.70020 0.007256
9682.50000 0.007254
9683.29980 0.007253
9684.09961 0.007251
9684.90039 0.007249
9685.70020 0.007248
9686.50000 0.007246
9687.29980 0.007244
9688.09961 0.007242
9688.90039 0.007521
9689.70020 0.007519
9690.50000 0.007797
9691.29980 0.007795
9692.09961 0.008073
9692.90039 0.008072
9693.70020 0.00835
9694.50000 0.008348
9695.29980 0.008346
9696.09961 0.008344
9696.90039 0.008623
9697.70020 0.009738
9698.50000 0.01002
9699.29980 0.01001
9700.09961 0.01029
9700.90039 0.01057
9701.70020 0.01085
9702.50000 0.01113
9703.29980 0.0114
9704.09961 0.01196
9704.90039 0.01224
9705.70020 0.01224
9706.50000 0.01252
9707.29980 0.01279
9708.09961 0.01335
9708.90039 0.01391
9709.70020 0.01391
9710.50000 0.01447
9711.29980 0.01502
9712.09961 0.01558
9712.90039 0.01614
9713.70020 0.0167
9714.50000 0.01726
9715.29980 0.01725
9716.09961 0.01725
9716.90039 0.01837
9717.79980 0.01893
9718.59961 0.01893
9719.40039 0.01892
9720.09961 0.02004
9721.00000 0.02116
9721.79980 0.02116
9722.50000 0.02116
9723.40039 0.02171
9724.20020 0.02255
9725.00000 0.02283
9725.79980 0.02311
9726.59961 0.02394
9727.40039 0.02478
9728.20020 0.02534
9729.00000 0.02534
9729.79980 0.02562
9730.59961 0.02589
9731.40039 0.02617
9732.20020 0.02617
9733.00000 0.02673
9733.79980 0.02729
9734.59961 0.02756
9735.40039 0.02756
9736.20020 0.02812
9737.00000 0.0284
9737.79980 0.0284
9738.59961 0.02895
9739.40039 0.02979
9740.20020 0.03007
9741.00000 0.03007
9741.79980 0.03007
9742.59961 0.03034
9743.40039 0.03062
9744.20020 0.03062
9745.00000 0.03062
9745.79980 0.03146
9746.59961 0.03201
9747.40039 0.03229
9748.20020 0.03229
9749.00000 0.03313
9749.79980 0.03425
9750.59961 0.03424
9751.40039 0.03452
9752.20020 0.0348
9753.00000 0.03508
9753.79980 0.03508
9754.59961 0.03535
9755.40039 0.03619
9756.20020 0.03675
9757.00000 0.03675
9757.79980 0.03675
9758.59961 0.03702
9759.40039 0.0373
9760.20020 0.0387
9761.00000 0.03898
9761.79980 0.04009
9762.59961 0.04121
9763.40039 0.04149
9764.20020 0.04205
9765.00000 0.04317
9765.79980 0.04372
9766.59961 0.04456
9767.40039 0.04484
9768.20020 0.04624
9769.00000 0.04679
9769.79980 0.04735
9770.59961 0.04791
9771.40039 0.04931
9772.20020 0.05014
9773.00000 0.05126
9773.79980 0.05182
9774.59961 0.05378
9775.40039 0.05545
9776.20020 0.05629
9777.00000 0.05741
9777.79980 0.05852
9778.59961 0.06048
9779.40039 0.06132
9780.20020 0.06244
9781.00000 0.06495
9781.79980 0.06747
9782.59961 0.06914
9783.40039 0.07054
9784.20020 0.0725
9785.00000 0.07473
9785.90039 0.07585
9786.59961 0.07641
9787.40039 0.07893
9788.20020 0.08088
9789.09961 0.08172
9789.90039 0.0834
9790.59961 0.08619
9791.50000 0.08843
9792.29980 0.08955
9793.09961 0.09066
9793.90039 0.09318
9794.70020 0.09514
9795.50000 0.09653
9796.29980 0.09793
9797.09961 0.1007
9797.90039 0.1038
9798.70020 0.1046
9799.50000 0.1066
9800.29980 0.1105
9801.09961 0.1111
9801.90039 0.1125
9802.70020 0.1133
9803.50000 0.1155
9804.29980 0.1181
9805.09961 0.1192
9805.90039 0.1203
9806.70020 0.1225
9807.50000 0.1248
9808.29980 0.1262
9809.09961 0.1276
9809.90039 0.1301
9810.70020 0.1326
9811.50000 0.134
9812.29980 0.1351
9813.09961 0.1362
9813.90039 0.1373
9814.70020 0.1393
9815.50000 0.1401
9816.29980 0.144
9817.09961 0.1474
9817.90039 0.1496
9818.70020 0.1519
9819.50000 0.1538
9820.29980 0.1566
9821.09961 0.1569
9821.90039 0.158
9822.70020 0.1611
9823.50000 0.1633
9824.29980 0.165
9825.09961 0.167
9825.90039 0.1695
9826.70020 0.172
9827.50000 0.1745
9828.29980 0.1759
9829.09961 0.1812
9829.90039 0.1857
9830.70020 0.1885
9831.50000 0.1913
9832.29980 0.2
9833.09961 0.1921
9833.90039 0.2
9834.70020 0.2019
9835.50000 0.2042
9836.29980 0.2083
9837.09961 0.2114
9837.90039 0.2145
9838.70020 0.2167
9839.50000 0.2271
9840.29980 0.2179
9841.09961 0.2282
9841.90039 0.231
9842.70020 0.2349
9843.50000 0.2391
9844.29980 0.2447
9845.09961 0.2492
9845.90039 0.2511
9846.70020 0.2654
9847.50000 0.2511
9848.29980 0.2668
9849.09961 0.2699
9849.90039 0.2741
9850.70020 0.2783
9851.50000 0.2841
9852.40039 0.2894
9853.09961 0.2925
9854.00000 0.3152
9854.79980 0.295
9855.50000 0.3152
9856.40039 0.3015
9857.09961 0.3211
9858.00000 0.3278
9858.79980 0.3443
9859.59961 0.3278
9860.40039 0.3448
9861.20020 0.3482
9862.00000 0.3515
9862.79980 0.3588
9863.59961 0.3647
9864.40039 0.37
9865.20020 0.3761
9866.00000 0.3773
9866.79980 0.391
9867.59961 0.3952
9868.40039 0.4013
9869.20020 0.4184
9870.00000 0.4024
9870.79980 0.422
9871.59961 0.422
9872.40039 0.4268
9873.20020 0.4268
9874.00000 0.4338
9874.79980 0.4338
9875.59961 0.4503
9876.40039 0.4332
9877.20020 0.4522
9878.00000 0.4556
9878.79980 0.4606
9879.59961 0.474
9880.40039 0.4612
9881.20020 0.4746
9882.00000 0.4794
9882.79980 0.4849
9883.59961 0.4925
9884.40039 0.5
9885.20020 0.5023
9886.00000 0.507
9886.79980 0.5082
9887.59961 0.5207
9888.40039 0.5247
9889.20020 0.5294
9890.00000 0.5372
9890.79980 0.5451
9891.59961 0.5481
9892.40039 0.5518
9893.20020 0.5571
9894.00000 0.5644
9894.79980 0.568
9895.59961 0.5702
9896.40039 0.5809
9897.20020 0.5893
9898.00000 0.5915
9898.79980 0.5971
9899.59961 0.601
9900.40039 0.6069
9901.20020 0.6108
9902.00000 0.613
9902.79980 0.6245
9903.59961 0.6141
9904.40039 0.6248
9905.20020 0.6248
9906.00000 0.6287
9906.79980 0.6287
9907.59961 0.6312
9908.40039 0.6312
9909.20020 0.636
9910.00000 0.636
9910.79980 0.6418
9911.59961 0.6418
9912.40039 0.646
9913.20020 0.646
9914.00000 0.6488
9914.79980 0.6488
9915.59961 0.6623
9916.40039 0.6485
9917.20020 0.6645
9918.09961 0.669
9918.90039 0.6737
9919.59961 0.6782
9920.40039 0.6866
9921.20020 0.6902
9922.00000 0.6927
9922.90039 0.6994
9923.59961 0.7059
9924.50000 0.7109
9925.29980 0.7148
9926.09961 0.721
9926.90039 0.7285
9927.70020 0.7316
9928.50000 0.7352
9929.29980 0.7355
9930.09961 0.7489
9930.90039 0.7526
9931.70020 0.7579
9932.50000 0.7657
9933.29980 0.7722
9934.09961 0.7741
9934.90039 0.7777
9935.70020 0.7842
9936.50000 0.7901
9937.29980 0.7945
9938.09961 0.799
9938.90039 0.808
9939.70020 0.8163
9940.50000 0.8186
9941.29980 0.8233
9942.09961 0.8275
9942.90039 0.8323
9943.70020 0.8351
9944.50000 0.837
9945.29980 0.8407
9946.09961 0.8454
9946.90039 0.8477
9947.70020 0.8496
9948.50000 0.8527
9949.29980 0.856
9950.09961 0.8591
9950.90039 0.8605
9951.70020 0.8658
9952.50000 0.8698
9953.29980 0.8723
9954.09961 0.8753
9954.90039 0.8779
9955.70020 0.8807
9956.50000 0.8818
9957.29980 0.8832
9958.09961 0.8857
9958.90039 0.8871
9959.70020 0.8885
9960.50000 0.8896
9961.29980 0.8913
9962.09961 0.8935
9962.90039 0.8935
9963.70020 0.8941
9964.50000 0.8957
9965.29980 0.8977
9966.09961 0.898
9966.90039 0.8985
9967.70020 0.8997
9968.50000 0.9005
9969.29980 0.9013
9970.09961 0.9019
9970.90039 0.9024
9971.70020 0.9027
9972.50000 0.903
9973.29980 0.903
9974.09961 0.9033
9974.90039 0.9041
9975.70020 0.9041
9976.50000 0.9041
9977.29980 0.9041
9978.09961 0.9044
9978.90039 0.9044
9979.70020 0.9044
9980.50000 0.9047
9981.29980 0.9047
9982.09961 0.9047
9982.90039 0.9047
9983.70020 0.9047
9984.50000 0.9047
9985.40039 0.9044
9986.09961 0.9044
9987.00000 0.9044
9987.79980 0.9044
9988.59961 0.9044
9989.40039 0.9041
9990.09961 0.9041
9990.90039 0.9041
9991.79980 0.9041
9992.59961 0.9035
9993.40039 0.903
9994.20020 0.903
9995.00000 0.903
9995.79980 0.9029
9996.59961 0.9024
9997.40039 0.9024
9998.20020 0.9024
9999.00000 0.9021
9999.79980 0.901
10000.59961 0.9001
10001.40039 0.9001
10002.20020 0.9001
10003.00000 0.899
10003.79980 0.8979
10004.59961 0.8979
10005.40039 0.8979
10006.20020 0.8971
10007.00000 0.8962
10007.79980 0.8956
10008.59961 0.8956
10009.40039 0.8945
10010.20020 0.8934
10011.00000 0.8934
10011.79980 0.8934
10012.59961 0.8931
10013.40039 0.8926
10014.20020 0.8917
10015.00000 0.8917
10015.79980 0.8909
10016.59961 0.8903
10017.40039 0.8895
10018.20020 0.8892
10019.00000 0.8889
10019.79980 0.8889
10020.59961 0.8886
10021.40039 0.8883
10022.20020 0.8872
10023.00000 0.8867
10023.79980 0.8867
10024.59961 0.8864
10025.40039 0.8858
10026.20020 0.8847
10027.00000 0.8844
10027.79980 0.8844
10028.59961 0.8844
10029.40039 0.8841
10030.20020 0.8839
10031.00000 0.8839
10031.79980 0.8838
10032.59961 0.8836
10033.40039 0.883
10034.20020 0.8827
10035.00000 0.8827
10035.79980 0.8827
10036.59961 0.8824
10037.40039 0.8824
10038.20020 0.8822
10039.00000 0.8819
10039.79980 0.8816
10040.59961 0.8808
10041.40039 0.8805
10042.20020 0.8805
10043.00000 0.8805
10043.79980 0.8805
10044.59961 0.8802
10045.40039 0.8799
10046.20020 0.8799
10047.00000 0.8796
10047.79980 0.8796
10048.59961 0.8793
10049.40039 0.8793
10050.20020 0.8793
10051.00000 0.8791
10051.79980 0.8782
10052.59961 0.8782
10053.40039 0.8782
10054.20020 0.8776
10055.09961 0.8774
10055.90039 0.8774
10056.70020 0.8771
10057.50000 0.8765
10058.29980 0.8757
10059.09961 0.8754
10059.90039 0.8754
10060.70020 0.8748
10061.50000 0.8737
10062.29980 0.8737
10063.09961 0.8737
10063.90039 0.8732
10064.70020 0.8723
10065.50000 0.8717
10066.29980 0.8709
10067.09961 0.8709
10067.90039 0.8706
10068.70020 0.8703
10069.50000 0.8703
10070.29980 0.8689
10071.09961 0.8684
10071.90039 0.8678
10072.70020 0.867
10073.50000 0.8664
10074.29980 0.8653
10075.09961 0.865
10075.90039 0.8645
10076.70020 0.8642
10077.50000 0.8639
10078.29980 0.863
10079.09961 0.8628
10079.90039 0.8614
10080.70020 0.86
10081.50000 0.8597
10082.29980 0.8597
10083.09961 0.8588
10083.90039 0.8577
10084.70020 0.8574
10085.50000 0.8574
10086.29980 0.8572
10087.09961 0.8569
10087.90039 0.8569
10088.70020 0.8563
10089.50000 0.8563
10090.29980 0.856
10091.09961 0.8557
10091.90039 0.8557
10092.70020 0.8557
10093.50000 0.8557
10094.29980 0.8557
10095.09961 0.8557
10095.90039 0.8557
10096.70020 0.8557
10097.50000 0.8557
10098.29980 0.8557
10099.09961 0.8557
10099.90039 0.8557
10100.70020 0.8568
10101.50000 0.8568
10102.29980 0.8571
10103.09961 0.8574
10103.90039 0.8577
10104.70020 0.858
10105.50000 0.8588
10106.29980 0.8591
10107.09961 0.8593
10107.90039 0.8602
10108.70020 0.8607
10109.50000 0.8613
10110.29980 0.8619
10111.09961 0.8619
10111.90039 0.8627
10112.70020 0.8635
10113.50000 0.8641
10114.29980 0.8641
10115.09961 0.8649
10115.90039 0.8655
10116.70020 0.866
10117.50000 0.8663
10118.29980 0.8672
10119.09961 0.8674
10119.90039 0.8677
10120.70020 0.8686
10121.59961 0.8688
10122.40039 0.8688
10123.20020 0.8694
10124.00000 0.8699
10124.79980 0.8705
10125.59961 0.8705
10126.40039 0.8705
10127.20020 0.8708
10128.00000 0.8711
10128.79980 0.8711
10129.59961 0.8713
10130.40039 0.8716
10131.20020 0.8719
10132.00000 0.8719
10132.79980 0.8724
10133.59961 0.8724
10134.40039 0.8724
10135.20020 0.8722
10136.00000 0.8719
10136.79980 0.8719
10137.59961 0.8713
10138.40039 0.8713
10139.20020 0.871
10140.00000 0.8707
10140.79980 0.8705
10141.59961 0.8702
10142.40039 0.8702
10143.20020 0.8693
10144.00000 0.8688
10144.79980 0.8685
10145.59961 0.8685
10146.40039 0.8679
10147.20020 0.8671
10148.00000 0.8665
10148.79980 0.8665
10149.59961 0.866
10150.40039 0.8651
10151.20020 0.8649
10152.00000 0.8643
10152.79980 0.864
10153.59961 0.8637
10154.40039 0.8637
10155.20020 0.8634
10156.00000 0.8623
10156.79980 0.8618
10157.59961 0.8618
10158.40039 0.8615
10159.20020 0.8615
10160.00000 0.8612
10160.79980 0.8612
10161.59961 0.8612
10162.40039 0.8606
10163.20020 0.8601
10164.00000 0.8601
10164.79980 0.8601
10165.59961 0.8598
10166.40039 0.8598
10167.20020 0.8598
10168.00000 0.8598
10168.79980 0.8598
10169.59961 0.8598
10170.40039 0.8595
10171.20020 0.8595
10172.00000 0.8598
10172.79980 0.8598
10173.59961 0.8598
10174.40039 0.8598
10175.20020 0.86
10176.00000 0.86
10176.79980 0.86
10177.59961 0.86
10178.40039 0.8609
10179.20020 0.8612
10180.00000 0.8614
10180.79980 0.8617
10181.59961 0.8623
10182.40039 0.8637
10183.20020 0.8637
10184.00000 0.8639
10184.79980 0.8642
10185.59961 0.8651
10186.40039 0.8656
10187.20020 0.8662
10188.00000 0.8662
10188.90039 0.867
10189.70020 0.8676
10190.50000 0.8681
10191.29980 0.8684
10192.09961 0.8687
10192.90039 0.8692
10193.70020 0.8695
10194.50000 0.8704
10195.29980 0.8706
10196.09961 0.8712
10196.90039 0.8717
10197.70020 0.8726
10198.50000 0.8729
10199.29980 0.8731
10200.09961 0.8737
10200.90039 0.8745
10201.70020 0.8751
10202.50000 0.8754
10203.29980 0.8756
10204.09961 0.8762
10204.90039 0.8768
10205.70020 0.877
10206.50000 0.8773
10207.29980 0.8776
10208.09961 0.8779
10208.90039 0.8784
10209.70020 0.8787
10210.50000 0.879
10211.29980 0.879
10212.09961 0.8793
10212.90039 0.8795
10213.70020 0.8795
10214.50000 0.8798
10215.29980 0.8798
10216.09961 0.8801
10216.90039 0.8801
10217.70020 0.8801
10218.50000 0.8801
10219.29980 0.8801
10220.09961 0.8801
10220.90039 0.8804
10221.70020 0.8801
10222.50000 0.8801
10223.29980 0.8801
10224.09961 0.8801
10224.90039 0.8801
10225.70020 0.8801
10226.50000 0.8801
10227.29980 0.8801
10228.09961 0.8801
10228.90039 0.8801
10229.70020 0.8798
10230.50000 0.8798
10231.29980 0.8798
10232.09961 0.8795
10232.90039 0.8792
10233.70020 0.8789
10234.50000 0.8789
10235.29980 0.8789
10236.09961 0.8784
10236.90039 0.8778
10237.70020 0.8778
10238.50000 0.8778
10239.29980 0.8775
10240.09961 0.8772
10240.90039 0.877
10241.70020 0.8767
10242.50000 0.8758
10243.29980 0.8756
10244.09961 0.8756
10244.90039 0.8756
10245.70020 0.8756
10246.50000 0.8753
10247.29980 0.8753
10248.09961 0.875
10248.90039 0.875
10249.70020 0.8744
10250.50000 0.8744
10251.29980 0.8744
10252.09961 0.8744
10252.90039 0.8744
10253.70020 0.8744
10254.50000 0.8744
10255.40039 0.8744
10256.20020 0.8744
10257.00000 0.8744
10257.79980 0.8744
10258.59961 0.8744
10259.40039 0.8744
10260.20020 0.8744
10261.00000 0.8744
10261.79980 0.8744
10262.59961 0.8744
10263.40039 0.8744
10264.20020 0.8744
10265.00000 0.8747
10265.79980 0.875
10266.59961 0.875
10267.40039 0.875
10268.20020 0.8752
10269.00000 0.8758
10269.79980 0.8761
10270.59961 0.8766
10271.40039 0.8769
10272.20020 0.8777
10273.00000 0.8786
10273.79980 0.8786
10274.59961 0.8789
10275.40039 0.8789
10276.20020 0.8794
10277.00000 0.8794
10277.79980 0.8797
10278.59961 0.8802
10279.40039 0.8808
10280.20020 0.8814
10281.00000 0.8819
10281.79980 0.8828
10282.59961 0.8833
10283.40039 0.8836
10284.20020 0.8839
10285.00000 0.8844
10285.79980 0.8844
10286.59961 0.8844
10287.40039 0.8858
10288.20020 0.8861
10289.00000 0.8869
10289.79980 0.8875
10290.59961 0.8881
10291.40039 0.8892
10292.20020 0.8894
10293.00000 0.8897
10293.79980 0.8903
10294.59961 0.8906
10295.40039 0.8906
10296.20020 0.8908
10297.00000 0.8917
10297.79980 0.8925
10298.59961 0.8925
10299.40039 0.8928
10300.20020 0.8928
10301.00000 0.8931
10301.79980 0.8933
10302.59961 0.8933
10303.40039 0.8933
10304.20020 0.8936
10305.00000 0.8939
10305.79980 0.8945
10306.59961 0.8945
10307.40039 0.8945
10308.20020 0.8944
10309.00000 0.8944
10309.79980 0.8944
10310.59961 0.8944
10311.40039 0.8944
10312.20020 0.8944
10313.00000 0.8944
10313.79980 0.8944
10314.59961 0.8944
10315.40039 0.8944
10316.20020 0.8944
10317.00000 0.8944
10317.79980 0.8941
10318.59961 0.8939
10319.40039 0.8933
10320.20020 0.8933
10321.00000 0.8933
10321.90039 0.8933
10322.70020 0.8933
10323.50000 0.893
10324.29980 0.8927
10325.09961 0.8925
10325.90039 0.8922
10326.70020 0.8922
10327.50000 0.8922
10328.29980 0.8922
10329.09961 0.8922
10329.90039 0.8922
10330.70020 0.8922
10331.50000 0.8908
10332.29980 0.8905
10333.09961 0.8905
10333.90039 0.8905
10334.70020 0.8902
10335.50000 0.8902
10336.29980 0.8902
10337.09961 0.8902
10337.90039 0.8902
10338.70020 0.8902
10339.50000 0.8905
10340.29980 0.8905
10341.09961 0.891
10341.90039 0.8921
10342.70020 0.8921
10343.50000 0.8921
10344.29980 0.8921
10345.09961 0.8924
10345.90039 0.8924
10346.70020 0.8927
10347.50000 0.8927
10348.29980 0.8932
10349.09961 0.8932
10349.90039 0.8932
10350.70020 0.8941
10351.50000 0.8946
10352.29980 0.8949
10353.09961 0.8949
10353.90039 0.896
10354.70020 0.8971
10355.50000 0.8974
10356.29980 0.8974
10357.09961 0.8985
10357.90039 0.8991
10358.70020 0.8994
10359.50000 0.8994
10360.29980 0.9008
10361.09961 0.9016
10361.90039 0.9022
10362.70020 0.9024
10363.50000 0.9033
10364.29980 0.9038
10365.09961 0.9041
10365.90039 0.9044
10366.70020 0.9052
10367.50000 0.9064
10368.29980 0.9063
10369.09961 0.9066
10369.90039 0.9072
10370.70020 0.908
10371.50000 0.9083
10372.29980 0.9083
10373.09961 0.9091
10373.90039 0.91
10374.70020 0.9105
10375.50000 0.9105
10376.29980 0.9108
10377.09961 0.9114
10377.90039 0.9116
10378.70020 0.9119
10379.50000 0.9122
10380.29980 0.9122
10381.09961 0.9122
10381.90039 0.9122
10382.70020 0.9122
10383.50000 0.9116
10384.29980 0.9116
10385.09961 0.9111
10385.90039 0.9111
10386.70020 0.9111
10387.50000 0.9111
10388.29980 0.9108
10389.20020 0.9102
10390.00000 0.9094
10390.79980 0.9091
10391.59961 0.9088
10392.40039 0.9083
10393.20020 0.908
10394.00000 0.9071
10394.79980 0.9066
10395.59961 0.9057
10396.40039 0.9049
10397.20020 0.9046
10398.00000 0.904
10398.79980 0.9038
10399.59961 0.9032
10400.40039 0.9026
10401.20020 0.9024
10402.00000 0.9015
10402.79980 0.901
10403.59961 0.9004
10404.40039 0.8998
10405.20020 0.8993
10406.00000 0.8987
10406.79980 0.8979
10407.59961 0.897
10408.40039 0.8962
10409.20020 0.8951
10410.00000 0.8948
10410.79980 0.8948
10411.59961 0.8942
10412.40039 0.8931
10413.20020 0.8931
10414.00000 0.8931
10414.79980 0.8925
10415.59961 0.8925
10416.40039 0.8923
10417.20020 0.892
10418.00000 0.892
10418.79980 0.892
10419.59961 0.8911
10420.40039 0.8906
10421.20020 0.8903
10422.00000 0.89
10422.79980 0.89
10423.59961 0.8897
10424.40039 0.8897
10425.20020 0.8897
10426.00000 0.8897
10426.79980 0.8897
10427.59961 0.89
10428.40039 0.8903
10429.20020 0.8903
10430.00000 0.8903
10430.79980 0.8911
10431.59961 0.8922
10432.40039 0.8925
10433.20020 0.8925
10434.00000 0.8928
10434.79980 0.8931
10435.59961 0.8931
10436.40039 0.8931
10437.20020 0.8936
10438.00000 0.8942
10438.79980 0.8942
10439.59961 0.8942
10440.40039 0.8947
10441.20020 0.8953
10442.00000 0.8958
10442.79980 0.8964
10443.59961 0.897
10444.40039 0.8975
10445.20020 0.8978
10446.00000 0.8984
10446.79980 0.8989
10447.59961 0.8992
10448.40039 0.8992
10449.20020 0.8995
10450.00000 0.8997
10450.79980 0.9009
10451.59961 0.9011
10452.40039 0.9011
10453.20020 0.9014
10454.00000 0.9017
10454.79980 0.902
10455.70020 0.902
10456.50000 0.902
10457.29980 0.902
10458.09961 0.902
10458.90039 0.902
10459.70020 0.9022
10460.50000 0.9022
10461.29980 0.9022
10462.09961 0.9022
10462.90039 0.902
10463.70020 0.902
10464.50000 0.9019
10465.29980 0.9019
10466.09961 0.9019
10466.90039 0.9019
10467.70020 0.9017
10468.50000 0.9014
10469.29980 0.9014
10470.09961 0.9011
10470.90039 0.9008
10471.70020 0.9003
10472.50000 0.8994
10473.29980 0.8991
10474.09961 0.8991
10474.90039 0.8986
10475.70020 0.898
10476.50000 0.8974
10477.29980 0.8972
10478.09961 0.8972
10478.90039 0.8966
10479.70020 0.8958
10480.50000 0.8955
10481.29980 0.8952
10482.09961 0.8949
10482.90039 0.8946
10483.70020 0.8946
10484.50000 0.8944
10485.29980 0.8941
10486.09961 0.8941
10486.90039 0.8941
10487.70020 0.8935
10488.50000 0.8929
10489.29980 0.8929
10490.09961 0.8929
10490.90039 0.8929
10491.70020 0.8929
10492.50000 0.8929
10493.29980 0.8929
10494.09961 0.8929
10494.90039 0.8929
10495.70020 0.8929
10496.50000 0.8929
10497.29980 0.8932
10498.09961 0.894
10498.90039 0.894
10499.70020 0.894
10500.50000 0.894
10501.29980 0.8943
10502.09961 0.8949
10502.90039 0.8957
10503.70020 0.8963
10504.50000 0.8963
10505.29980 0.8965
10506.09961 0.8968
10506.90039 0.8968
10507.70020 0.8977
10508.50000 0.8988
10509.29980 0.8991
10510.09961 0.8991
10510.90039 0.8999
10511.70020 0.901
10512.50000 0.9013
10513.29980 0.9013
10514.09961 0.9024
10514.90039 0.9035
10515.70020 0.9035
10516.50000 0.9041
10517.29980 0.9052
10518.09961 0.906
10518.90039 0.906
10519.70020 0.9063
10520.50000 0.9069
10521.29980 0.9074
10522.20020 0.908
10523.00000 0.908
10523.79980 0.9085
10524.59961 0.9097
10525.40039 0.9099
10526.20020 0.9102
10527.00000 0.9105
10527.79980 0.9108
10528.59961 0.911
10529.40039 0.9113
10530.20020 0.9119
10531.00000 0.9119
10531.79980 0.9119
10532.59961 0.9119
10533.40039 0.9122
10534.20020 0.9122
10535.00000 0.9124
10535.79980 0.9124
10536.59961 0.9124
10537.40039 0.9127
10538.20020 0.9127
10539.00000 0.9124
10539.79980 0.9124
10540.59961 0.9121
10541.40039 0.9119
10542.20020 0.9119
10543.00000 0.9116
10543.79980 0.9107
10544.59961 0.9107
10545.40039 0.9107
10546.20020 0.9107
10547.00000 0.9104
10547.79980 0.9102
10548.59961 0.9096
10549.40039 0.9088
10550.20020 0.9079
10551.00000 0.9079
10551.79980 0.9074
10552.59961 0.9065
10553.40039 0.906
10554.20020 0.9057
10555.00000 0.9057
10555.79980 0.9048
10556.59961 0.9037
10557.40039 0.9034
10558.20020 0.9034
10559.00000 0.9031
10559.79980 0.9026
10560.59961 0.902
10561.40039 0.9017
10562.20020 0.9012
10563.00000 0.9006
10563.79980 0.9001
10564.59961 0.8992
10565.40039 0.8989
10566.20020 0.8987
10567.00000 0.8984
10567.79980 0.8984
10568.59961 0.8973
10569.40039 0.8967
10570.20020 0.8967
10571.00000 0.8967
10571.79980 0.8961
10572.59961 0.895
10573.40039 0.895
10574.20020 0.895
10575.00000 0.895
10575.79980 0.895
10576.59961 0.895
10577.40039 0.895
10578.20020 0.895
10579.00000 0.895
10579.79980 0.895
10580.59961 0.895
10581.40039 0.895
10582.20020 0.895
10583.00000 0.895
10583.79980 0.895
10584.59961 0.895
10585.40039 0.895
10586.20020 0.895
10587.00000 0.895
10587.79980 0.895
10588.59961 0.895
10589.50000 0.895
10590.29980 0.895
10591.09961 0.895
10591.90039 0.895
10592.70020 0.8955
10593.50000 0.8958
10594.29980 0.8961
10595.09961 0.8961
10595.90039 0.8961
10596.70020 0.8961
10597.50000 0.8958
10598.29980 0.8955
10599.09961 0.8952
10599.90039 0.8949
10600.70020 0.8949
10601.50000 0.8949
10602.29980 0.8949
10603.09961 0.8947
10603.90039 0.8944
10604.70020 0.8941
10605.50000 0.8941
10606.29980 0.8938
10607.09961 0.8927
10607.90039 0.8921
10608.70020 0.8921
10609.50000 0.8918
10610.29980 0.8918
10611.09961 0.8913
10611.90039 0.8907
10612.70020 0.8902
10613.50000 0.8893
10614.29980 0.8888
10615.09961 0.8882
10615.90039 0.8876
10616.70020 0.8868
10617.50000 0.886
10618.29980 0.8854
10619.09961 0.8854
10619.90039 0.8843
10620.70020 0.8832
10621.50000 0.8823
10622.29980 0.8818
10623.09961 0.8806
10623.90039 0.8789
10624.70020 0.8787
10625.50000 0.8787
10626.29980 0.8773
10627.09961 0.8761
10627.90039 0.8756
10628.70020 0.8747
10629.50000 0.8739
10630.29980 0.8728
10631.09961 0.8722
10631.90039 0.8719
10632.70020 0.8705
10633.50000 0.8697
10634.29980 0.8686
10635.09961 0.8683
10635.90039 0.8669
10636.70020 0.8658
10637.50000 0.8652
10638.29980 0.8652
10639.09961 0.8646
10639.90039 0.8635
10640.70020 0.8627
10641.50000 0.8624
10642.29980 0.8613
10643.09961 0.8596
10643.90039 0.8593
10644.70020 0.859
10645.50000 0.8588
10646.29980 0.8588
10647.09961 0.8585
10647.90039 0.8579
10648.70020 0.8571
10649.50000 0.8562
10650.29980 0.8562
10651.09961 0.856
10651.90039 0.8557
10652.70020 0.8557
10653.50000 0.8557
10654.29980 0.8557
10655.20020 0.8557
10656.00000 0.8557
10656.79980 0.8557
10657.59961 0.8557
10658.40039 0.8554
10659.20020 0.8554
10660.00000 0.8557
10660.79980 0.8557
10661.59961 0.8556
10662.40039 0.8556
10663.20020 0.8556
10664.00000 0.8556
10664.79980 0.8559
10665.59961 0.8562
10666.40039 0.8562
10667.20020 0.8562
10668.00000 0.8568
10668.79980 0.8576
10669.59961 0.8582
10670.40039 0.8581
10671.20020 0.8584
10672.00000 0.8593
10672.79980 0.8593
10673.59961 0.8601
10674.40039 0.8604
10675.20020 0.8607
10676.00000 0.8607
10676.79980 0.8609
10677.59961 0.8612
10678.40039 0.8618
10679.20020 0.862
10680.00000 0.8623
10680.79980 0.8623
10681.59961 0.8626
10682.40039 0.8626
10683.20020 0.8626
10684.00000 0.8629
10684.79980 0.8629
10685.59961 0.8629
10686.40039 0.8632
10687.20020 0.8631
10688.00000 0.8631
10688.79980 0.8631
10689.59961 0.8631
10690.40039 0.8629
10691.20020 0.8626
10692.00000 0.8626
10692.79980 0.8626
10693.59961 0.8623
10694.40039 0.862
10695.20020 0.8615
10696.00000 0.8612
10696.79980 0.8609
10697.59961 0.8606
10698.40039 0.8606
10699.20020 0.86
10700.00000 0.8598
10700.79980 0.8589
10701.59961 0.8589
10702.40039 0.8586
10703.20020 0.8581
10704.00000 0.8572
10704.79980 0.8564
10705.59961 0.8564
10706.40039 0.8561
10707.20020 0.8558
10708.00000 0.8553
10708.79980 0.855
10709.59961 0.8544
10710.40039 0.8539
10711.20020 0.8539
10712.00000 0.8533
10712.79980 0.8522
10713.59961 0.8513
10714.40039 0.8511
10715.20020 0.8499
10716.00000 0.8497
10716.79980 0.8494
10717.59961 0.8494
10718.40039 0.8491
10719.20020 0.8485
10720.00000 0.8474
10720.79980 0.8474
10721.59961 0.8468
10722.40039 0.8463
10723.29980 0.8454
10724.09961 0.8452
10724.90039 0.8452
10725.70020 0.8449
10726.50000 0.8446
10727.29980 0.8443
10728.09961 0.8443
10728.90039 0.8443
10729.70020 0.8438
10730.50000 0.8432
10731.29980 0.8432
10732.09961 0.8432
10732.90039 0.8429
10733.70020 0.8426
10734.50000 0.8426
10735.29980 0.8423
10736.09961 0.8421
10736.90039 0.8418
10737.70020 0.8418
10738.50000 0.8415
10739.29980 0.8412
10740.09961 0.8409
10740.90039 0.8409
10741.70020 0.8409
10742.50000 0.8409
10743.29980 0.8409
10744.09961 0.8409
10744.90039 0.8409
10745.70020 0.8409
10746.50000 0.8409
10747.29980 0.8409
10748.09961 0.8409
10748.90039 0.8409
10749.70020 0.8409
10750.50000 0.8409
10751.29980 0.8409
10752.09961 0.8406
10752.90039 0.8406
10753.70020 0.8403
10754.50000 0.8403
10755.29980 0.8403
10756.09961 0.8401
10756.90039 0.8401
10757.70020 0.8398
10758.50000 0.8398
10759.29980 0.8398
10760.09961 0.8398
10760.90039 0.8389
10761.70020 0.8384
10762.50000 0.8381
10763.29980 0.8381
10764.09961 0.8375
10764.90039 0.8364
10765.70020 0.8364
10766.50000 0.8364
10767.29980 0.8358
10768.09961 0.8358
10768.90039 0.8353
10769.70020 0.8344
10770.50000 0.8336
10771.29980 0.8333
10772.09961 0.833
10772.90039 0.8325
10773.70020 0.8314
10774.50000 0.8308
10775.29980 0.8305
10776.09961 0.8299
10776.90039 0.8283
10777.70020 0.8274
10778.50000 0.8269
10779.29980 0.8266
10780.09961 0.8252
10780.90039 0.8238
10781.70020 0.8232
10782.50000 0.8232
10783.29980 0.8215
10784.09961 0.8201
10784.90039 0.8201
10785.70020 0.8201
10786.50000 0.819
10787.29980 0.8179
10788.09961 0.8173
10789.00000 0.8168
10789.79980 0.8154
10790.59961 0.8137
10791.40039 0.8134
10792.20020 0.8128
10793.00000 0.8117
10793.79980 0.8109
10794.59961 0.81
10795.40039 0.8098
10796.20020 0.8081
10797.00000 0.807
10797.79980 0.8061
10798.59961 0.8053
10799.40039 0.8047
10800.20020 0.8033
10801.00000 0.8028
10801.79980 0.8028
10802.59961 0.8022
10803.40039 0.8019
10804.20020 0.8016
10805.00000 0.8014
10805.79980 0.8002
10806.59961 0.8
10807.40039 0.7994
10808.20020 0.7991
10809.00000 0.7985
10809.79980 0.798
10810.59961 0.7977
10811.40039 0.7977
10812.20020 0.7974
10813.00000 0.7971
10813.79980 0.7971
10814.59961 0.7971
10815.40039 0.7971
10816.20020 0.7971
10817.00000 0.7971
10817.79980 0.7971
10818.59961 0.7971
10819.40039 0.7971
10820.20020 0.7974
10821.00000 0.7974
10821.79980 0.7977
10822.59961 0.798
10823.40039 0.798
10824.20020 0.7982
10825.00000 0.7994
10825.79980 0.8002
10826.59961 0.8007
10827.40039 0.8013
10828.20020 0.8019
10829.00000 0.8021
10829.79980 0.8024
10830.59961 0.8027
10831.40039 0.8038
10832.20020 0.8049
10833.00000 0.8058
10833.79980 0.8072
10834.59961 0.8077
10835.40039 0.8094
10836.20020 0.8105
10837.00000 0.8105
10837.79980 0.8114
10838.59961 0.8119
10839.40039 0.813
10840.20020 0.8141
10841.00000 0.815
10841.79980 0.8167
10842.59961 0.8172
10843.40039 0.8178
10844.20020 0.8192
10845.00000 0.8203
10845.79980 0.8211
10846.59961 0.822
10847.40039 0.8231
10848.20020 0.8242
10849.00000 0.825
10849.79980 0.8256
10850.59961 0.827
10851.40039 0.8284
10852.20020 0.8289
10853.00000 0.8298
10853.79980 0.8309
10854.59961 0.8323
10855.40039 0.8326
10856.29980 0.8334
10857.09961 0.8343
10857.90039 0.8354
10858.70020 0.8356
10859.50000 0.8356
10860.29980 0.8373
10861.09961 0.8387
10861.90039 0.839
10862.70020 0.8401
10863.50000 0.8412
10864.29980 0.8423
10865.09961 0.8426
10865.90039 0.8437
10866.70020 0.8446
10867.50000 0.8457
10868.29980 0.8465
10869.09961 0.8471
10869.90039 0.8479
10870.70020 0.8491
10871.50000 0.8493
10872.29980 0.8496
10873.09961 0.8504
10873.90039 0.8513
10874.70020 0.8516
10875.50000 0.8518
10876.29980 0.8524
10877.09961 0.8541
10877.90039 0.8549
10878.70020 0.8555
10879.50000 0.8557
10880.29980 0.8566
10881.09961 0.8571
10881.90039 0.858
10882.70020 0.8591
10883.50000 0.8602
10884.29980 0.8608
10885.09961 0.8613
10885.90039 0.8624
10886.70020 0.8638
10887.50000 0.8644
10888.29980 0.8647
10889.09961 0.8658
10889.90039 0.8669
10890.70020 0.8672
10891.50000 0.8677
10892.29980 0.8686
10893.09961 0.8691
10893.90039 0.8694
10894.70020 0.8703
10895.50000 0.8717
10896.29980 0.8728
10897.09961 0.8736
10897.90039 0.8736
10898.70020 0.875
10899.50000 0.8758
10900.29980 0.8767
10901.09961 0.8772
10901.90039 0.8795
10902.70020 0.8812
10903.50000 0.8817
10904.29980 0.8825
10905.09961 0.8837
10905.90039 0.8848
10906.70020 0.8856
10907.50000 0.8862
10908.29980 0.8876
10909.09961 0.8901
10909.90039 0.8906
10910.70020 0.8912
10911.50000 0.8926
10912.29980 0.8948
10913.09961 0.8954
10913.90039 0.896
10914.70020 0.8976
10915.50000 0.8993
10916.29980 0.9001
10917.09961 0.901
10917.90039 0.9024
10918.70020 0.9043
10919.50000 0.9049
10920.29980 0.9055
10921.09961 0.9074
10921.90039 0.9085
10922.79980 0.9094
10923.59961 0.9105
10924.40039 0.9113
10925.20020 0.9122
10926.00000 0.9124
10926.79980 0.913
10927.59961 0.9136
10928.40039 0.9147
10929.20020 0.9149
10930.00000 0.9152
10930.79980 0.9172
10931.59961 0.9189
10932.40039 0.9191
10933.20020 0.92
10934.00000 0.9205
10934.79980 0.9211
10935.59961 0.9211
10936.40039 0.9216
10937.20020 0.923
10938.00000 0.9239
10938.79980 0.9244
10939.59961 0.9253
10940.40039 0.9256
10941.20020 0.9256
10942.00000 0.9256
10942.79980 0.9258
10943.59961 0.9267
10944.40039 0.9272
10945.20020 0.9272
10946.00000 0.9272
10946.79980 0.9275
10947.59961 0.9278
10948.40039 0.9283
10949.20020 0.9286
10950.00000 0.9289
10950.79980 0.9294
10951.59961 0.9294
10952.40039 0.9297
10953.20020 0.9297
10954.00000 0.9297
10954.79980 0.93
10955.59961 0.93
10956.40039 0.93
10957.20020 0.93
10958.00000 0.93
10958.79980 0.93
10959.59961 0.93
10960.40039 0.9297
10961.20020 0.9297
10962.00000 0.9294
10962.79980 0.9294
10963.59961 0.9294
10964.40039 0.9294
10965.20020 0.9294
10966.00000 0.9289
10966.79980 0.9286
10967.59961 0.928
10968.40039 0.9277
10969.20020 0.9277
10970.00000 0.9277
10970.79980 0.9274
10971.59961 0.9274
10972.40039 0.9272
10973.20020 0.9269
10974.00000 0.9266
10974.79980 0.9266
10975.59961 0.9266
10976.40039 0.9266
10977.20020 0.926
10978.00000 0.926
10978.79980 0.9255
10979.59961 0.9255
10980.40039 0.9249
10981.20020 0.9249
10982.00000 0.9243
10982.79980 0.9232
10983.59961 0.9232
10984.40039 0.9232
10985.20020 0.9232
10986.00000 0.9229
10986.79980 0.9227
10987.59961 0.9227
10988.40039 0.9224
10989.29980 0.9218
10990.09961 0.9213
10990.90039 0.921
10991.70020 0.9207
10992.50000 0.9204
10993.29980 0.9201
10994.09961 0.9196
10994.90039 0.919
10995.70020 0.9182
10996.50000 0.9182
10997.29980 0.9182
10998.09961 0.9179
10998.90039 0.9176
10999.70020 0.9176
11000.50000 0.9176
11001.29980 0.9165
11002.09961 0.9159
11002.90039 0.9159
11003.70020 0.9159
11004.50000 0.9151
11005.29980 0.9139
11006.09961 0.9139
11006.90039 0.9137
11007.70020 0.9134
11008.50000 0.9128
11009.29980 0.9123
11010.09961 0.912
11010.90039 0.912
11011.70020 0.9117
11012.50000 0.9114
11013.29980 0.9114
11014.09961 0.9103
11014.90039 0.9094
11015.70020 0.9092
11016.50000 0.9092
11017.29980 0.9083
11018.09961 0.9072
11018.90039 0.9069
11019.70020 0.9069
11020.50000 0.9061
11021.29980 0.905
11022.09961 0.9047
11022.90039 0.9044
11023.70020 0.9036
11024.50000 0.9024
11025.29980 0.9022
11026.09961 0.9019
11026.90039 0.9016
11027.70020 0.8999
11028.50000 0.8991
11029.29980 0.8985
11030.09961 0.8982
11030.90039 0.8979
11031.70020 0.8977
11032.50000 0.8974
11033.29980 0.8963
11034.09961 0.8957
11034.90039 0.8954
11035.70020 0.8949
11036.50000 0.8943
11037.29980 0.8929
11038.09961 0.8923
11038.90039 0.8918
11039.70020 0.8912
11040.50000 0.8912
11041.29980 0.8904
11042.09961 0.8898
11042.90039 0.8887
11043.70020 0.8878
11044.50000 0.887
11045.29980 0.8867
11046.09961 0.8859
11046.90039 0.8848
11047.70020 0.8845
11048.50000 0.8845
11049.29980 0.8839
11050.09961 0.8828
11050.90039 0.8822
11051.70020 0.8822
11052.50000 0.8817
11053.29980 0.8808
11054.09961 0.8803
11054.90039 0.88
11055.70020 0.8797
11056.59961 0.8794
11057.40039 0.8786
11058.20020 0.8783
11059.00000 0.8777
11059.79980 0.8777
11060.59961 0.8772
11061.40039 0.8766
11062.20020 0.8761
11063.00000 0.8755
11063.79980 0.8752
11064.59961 0.8749
11065.40039 0.8749
11066.20020 0.8741
11067.00000 0.8741
11067.79980 0.8738
11068.59961 0.8738
11069.40039 0.8738
11070.20020 0.8738
11071.00000 0.8738
11071.79980 0.8738
11072.59961 0.8738
11073.40039 0.8738
11074.20020 0.8738
11075.00000 0.8738
11075.79980 0.8738
11076.59961 0.8738
11077.40039 0.8738
11078.20020 0.8741
11079.00000 0.8741
11079.79980 0.8746
11080.59961 0.8746
11081.40039 0.8749
11082.20020 0.8749
11083.00000 0.8749
11083.79980 0.8749
11084.59961 0.8755
11085.40039 0.8754
11086.20020 0.876
11087.00000 0.8766
11087.79980 0.8774
11088.59961 0.8777
11089.40039 0.878
11090.20020 0.8782
11091.00000 0.8785
11091.79980 0.8794
11092.59961 0.8794
11093.40039 0.8796
11094.20020 0.8799
11095.00000 0.8807
11095.79980 0.8813
11096.59961 0.8821
11097.40039 0.8824
11098.20020 0.883
11099.00000 0.8835
11099.79980 0.8838
11100.59961 0.8841
11101.40039 0.8844
11102.20020 0.8846
11103.00000 0.8849
11103.79980 0.8858
11104.59961 0.8866
11105.40039 0.8866
11106.20020 0.8866
11107.00000 0.8874
11107.79980 0.8886
11108.59961 0.8888
11109.40039 0.8891
11110.20020 0.8899
11111.00000 0.8905
11111.79980 0.8908
11112.59961 0.8911
11113.40039 0.8913
11114.20020 0.8916
11115.00000 0.8919
11115.79980 0.8922
11116.59961 0.8927
11117.40039 0.893
11118.20020 0.8933
11119.00000 0.8933
11119.79980 0.8933
11120.59961 0.8938
11121.40039 0.8941
11122.20020 0.8947
11123.09961 0.8955
11123.90039 0.8958
11124.70020 0.8958
11125.50000 0.8961
11126.29980 0.8961
11127.09961 0.8961
11127.90039 0.8961
11128.70020 0.8961
11129.50000 0.8961
11130.29980 0.8961
11131.09961 0.8963
11131.90039 0.8961
11132.70020 0.8961
11133.50000 0.896
11134.29980 0.896
11135.09961 0.8963
11135.90039 0.8963
11136.70020 0.8963
11137.50000 0.8963
11138.29980 0.896
11139.09961 0.896
11139.90039 0.896
11140.70020 0.896
11141.50000 0.896
11142.29980 0.896
11143.09961 0.896
11143.90039 0.896
11144.70020 0.896
11145.50000 0.896
11146.29980 0.8958
11147.09961 0.8958
11147.90039 0.8955
11148.70020 0.8955
11149.50000 0.8955
11150.29980 0.8955
11151.09961 0.8952
11151.90039 0.8952
11152.70020 0.8946
11153.50000 0.8946
11154.29980 0.8941
11155.09961 0.8941
11155.90039 0.8938
11156.70020 0.8938
11157.50000 0.8938
11158.29980 0.8938
11159.09961 0.8938
11159.90039 0.8938
11160.70020 0.8938
11161.50000 0.8938
11162.29980 0.8938
11163.09961 0.8938
11163.90039 0.8935
11164.70020 0.8935
11165.50000 0.8932
11166.29980 0.8932
11167.09961 0.8932
11167.90039 0.8932
11168.70020 0.8929
11169.50000 0.8929
11170.29980 0.8926
11171.09961 0.8926
11171.90039 0.8926
11172.70020 0.8926
11173.50000 0.8926
11174.29980 0.8926
11175.09961 0.8926
11175.90039 0.8926
11176.70020 0.8926
11177.50000 0.8926
11178.29980 0.8926
11179.09961 0.8926
11179.90039 0.8924
11180.70020 0.8924
11181.50000 0.8921
11182.29980 0.8921
11183.09961 0.8918
11183.90039 0.8918
11184.70020 0.8918
11185.50000 0.8918
11186.29980 0.8915
11187.09961 0.8915
11187.90039 0.8915
11188.70020 0.8915
11189.50000 0.8915
11190.40039 0.8915
11191.20020 0.8915
11192.00000 0.8915
11192.79980 0.8915
11193.59961 0.8915
11194.40039 0.8915
11195.20020 0.8915
11196.00000 0.8915
11196.79980 0.8915
11197.59961 0.8915
11198.40039 0.8915
11199.20020 0.8915
11200.00000 0.8915
11200.79980 0.8915
11201.59961 0.8915
11202.40039 0.8915
11203.20020 0.8915
11204.00000 0.8915
11204.79980 0.8915
11205.59961 0.8915
11206.40039 0.8915
11207.20020 0.8915
11208.00000 0.8915
11208.79980 0.8915
11209.59961 0.8915
11210.40039 0.8915
11211.20020 0.8915
11212.00000 0.8915
11212.79980 0.8915
11213.59961 0.8915
11214.40039 0.8915
11215.20020 0.8915
11216.00000 0.8915
11216.79980 0.8915
11217.59961 0.8915
11218.40039 0.8915
11219.20020 0.8915
11220.00000 0.8915
11220.79980 0.8915
11221.59961 0.8915
11222.40039 0.8915
11223.20020 0.8915
11224.00000 0.8915
11224.79980 0.8915
11225.59961 0.8915
11226.40039 0.8915
11227.20020 0.8915
11228.00000 0.8915
11228.79980 0.8915
11229.59961 0.8915
11230.40039 0.8915
11231.20020 0.8915
11232.00000 0.8915
11232.79980 0.8915
11233.59961 0.8915
11234.40039 0.8915
11235.20020 0.8915
11236.00000 0.8915
11236.79980 0.8915
11237.59961 0.8915
11238.40039 0.8915
11239.20020 0.8915
11240.00000 0.8915
11240.79980 0.8915
11241.59961 0.8915
11242.40039 0.8915
11243.20020 0.8915
11244.00000 0.8915
11244.79980 0.8915
11245.59961 0.8914
11246.40039 0.8914
11247.20020 0.8914
11248.00000 0.8914
11248.79980 0.8914
11249.59961 0.8914
11250.40039 0.8914
11251.20020 0.8914
11252.00000 0.8914
11252.79980 0.8914
11253.59961 0.8914
11254.40039 0.8914
11255.20020 0.8914
11256.00000 0.8914
11256.90039 0.8914
11257.70020 0.8914
11258.50000 0.8912
11259.29980 0.8912
11260.09961 0.8909
11260.90039 0.8909
11261.70020 0.89
11262.50000 0.89
11263.29980 0.8892
11264.09961 0.8892
11264.90039 0.8892
11265.70020 0.8892
11266.50000 0.8892
11267.29980 0.8892
11268.09961 0.8892
11268.90039 0.8892
11269.70020 0.8892
11270.50000 0.8892
11271.29980 0.8889
11272.09961 0.8889
11272.90039 0.8886
11273.70020 0.8886
11274.50000 0.8883
11275.29980 0.8883
11276.09961 0.8881
11276.90039 0.8881
11277.70020 0.8881
11278.50000 0.8881
11279.29980 0.8875
11280.09961 0.8875
11280.90039 0.8869
11281.70020 0.8869
11282.50000 0.8869
11283.29980 0.8869
11284.09961 0.8869
11284.90039 0.8869
11285.70020 0.8869
11286.50000 0.8869
11287.29980 0.8864
11288.09961 0.8864
11288.90039 0.8858
11289.70020 0.8858
11290.50000 0.8852
11291.29980 0.8852
11292.09961 0.8844
11292.90039 0.8844
11293.70020 0.8841
11294.50000 0.8841
11295.29980 0.8841
11296.09961 0.8841
11296.90039 0.8838
11297.70020 0.8838
11298.50000 0.8836
11299.29980 0.8836
11300.09961 0.8836
11300.90039 0.8836
11301.70020 0.883
11302.50000 0.883
11303.29980 0.8824
11304.09961 0.8824
11304.90039 0.8824
11305.70020 0.8824
11306.50000 0.8824
11307.29980 0.8824
11308.09961 0.8822
11308.90039 0.8822
11309.70020 0.8819
11310.50000 0.8819
11311.29980 0.8819
11312.09961 0.8819
11312.90039 0.8819
11313.70020 0.8819
11314.50000 0.8813
11315.29980 0.8813
11316.09961 0.8813
11316.90039 0.8813
11317.70020 0.8813
11318.50000 0.8813
11319.29980 0.8813
11320.09961 0.8813
11320.90039 0.8813
11321.70020 0.8813
11322.50000 0.8813
11323.40039 0.8813
11324.20020 0.8813
11325.00000 0.8813
11325.79980 0.8816
11326.59961 0.8816
11327.40039 0.8819
11328.20020 0.8819
11329.00000 0.8818
11329.79980 0.8818
11330.59961 0.8818
11331.40039 0.8818
11332.20020 0.8821
11333.00000 0.8821
11333.79980 0.8832
11334.59961 0.8832
11335.40039 0.8835
11336.20020 0.8835
11337.00000 0.8835
11337.79980 0.8835
11338.59961 0.8838
11339.40039 0.8838
11340.20020 0.8841
11341.00000 0.8841
11341.79980 0.8844
11342.59961 0.8844
11343.40039 0.8849
11344.20020 0.8849
11345.00000 0.8857
11345.79980 0.8857
11346.59961 0.8866
11347.40039 0.8866
11348.20020 0.8871
11349.00000 0.8871
11349.79980 0.8874
11350.59961 0.8874
11351.40039 0.8885
11352.20020 0.8885
11353.00000 0.8897
11353.79980 0.8897
11354.59961 0.8899
11355.40039 0.8899
11356.20020 0.8908
11357.00000 0.8908
11357.79980 0.8916
11358.59961 0.8916
11359.40039 0.893
11360.20020 0.893
11361.00000 0.8936
11361.79980 0.8936
11362.59961 0.8947
11363.40039 0.8947
11364.20020 0.8961
11365.00000 0.8961
11365.79980 0.8975
11366.59961 0.8975
11367.40039 0.898
11368.20020 0.898
11369.00000 0.8989
11369.79980 0.8989
11370.59961 0.9003
11371.40039 0.9003
11372.20020 0.9014
11373.00000 0.9014
11373.79980 0.9019
11374.59961 0.9019
11375.40039 0.9022
11376.20020 0.9022
11377.00000 0.9036
11377.79980 0.9036
11378.59961 0.9047
11379.40039 0.9047
11380.20020 0.9053
11381.00000 0.9053
11381.79980 0.9061
11382.59961 0.9061
11383.40039 0.9064
11384.20020 0.9064
11385.00000 0.9067
11385.79980 0.9067
11386.59961 0.9072
11387.40039 0.9072
11388.20020 0.9078
11389.00000 0.9078
11389.79980 0.9081
11390.70020 0.9081
11391.50000 0.9081
11392.29980 0.9081
11393.09961 0.9081
11393.90039 0.9081
11394.70020 0.9075
11395.50000 0.9075
11396.29980 0.9061
11397.09961 0.9061
11397.90039 0.9058
11398.70020 0.9058
11399.50000 0.9042
11400.29980 0.9042
11401.09961 0.9033
11401.90039 0.9033
11402.70020 0.9008
11403.50000 0.9008
11404.29980 0.8972
11405.09961 0.8972
11405.90039 0.8963
11406.70020 0.8963
11407.50000 0.8955
11408.29980 0.8955
11409.09961 0.8927
11409.90039 0.8927
11410.70020 0.8904
11411.50000 0.8904
11412.29980 0.889
11413.09961 0.889
11413.90039 0.8871
11414.70020 0.8871
11415.50000 0.879
11416.29980 0.8868
11417.09961 0.8778
11417.90039 0.8734
11418.70020 0.87
11419.50000 0.8658
11420.29980 0.8596
11421.09961 0.8552
11421.90039 0.8524
11422.70020 0.8359
11423.50000 0.8521
11424.29980 0.835
11425.09961 0.8317
11425.90039 0.8238
11426.70020 0.8188
11427.50000 0.8087
11428.29980 0.8048
11429.09961 0.8009
11429.90039 0.7928
11430.70020 0.7821
11431.50000 0.7788
11432.29980 0.7735
11433.09961 0.7494
11433.90039 0.7494
11434.70020 0.7723
11435.50000 0.7508
11436.29980 0.7508
11437.09961 0.7508
11437.90039 0.7438
11438.70020 0.7438
11439.50000 0.7438
11440.29980 0.7371
11441.09961 0.7371
11441.90039 0.7371
11442.70020 0.7253
11443.50000 0.7253
11444.29980 0.7253
11445.09961 0.7186
11445.90039 0.7186
11446.70020 0.7186
11447.50000 0.7108
11448.29980 0.7108
11449.09961 0.7108
11449.90039 0.7077
11450.70020 0.7077
11451.50000 0.7077
11452.29980 0.6822
11453.09961 0.6822
11453.90039 0.7021
11454.70020 0.6792
11455.50000 0.6792
11456.40039 0.6744
11457.20020 0.6744
11458.00000 0.6669
11458.79980 0.6669
11459.59961 0.6509
11460.40039 0.6629
11461.20020 0.6447
11462.00000 0.6414
11462.79980 0.6308
11463.59961 0.6014
11464.40039 0.6366
11465.20020 0.6011
11466.00000 0.5913
11466.79980 0.5796
11467.59961 0.5782
11468.40039 0.558
11469.20020 0.5507
11470.00000 0.5477
11470.79980 0.5465
11471.59961 0.5303
11472.40039 0.5219
11473.20020 0.5174
11474.00000 0.5132
11474.79980 0.4925
11475.59961 0.4883
11476.40039 0.4813
11477.20020 0.4634
11478.00000 0.4783
11478.79980 0.4584
11479.59961 0.4584
11480.40039 0.455
11481.20020 0.455
11482.00000 0.4455
11482.79980 0.4455
11483.59961 0.4226
11484.40039 0.4497
11485.20020 0.4187
11486.00000 0.4111
11486.79980 0.4024
11487.59961 0.401
11488.40039 0.3862
11489.20020 0.3781
11490.00000 0.3742
11490.79980 0.3605
11491.59961 0.3507
11492.40039 0.3412
11493.20020 0.337
11494.00000 0.333
11494.79980 0.3168
11495.59961 0.3137
11496.40039 0.309
11497.20020 0.2978
11498.00000 0.2978
11498.79980 0.3087
11499.59961 0.295
11500.40039 0.295
11501.20020 0.2922
11502.00000 0.2922
11502.79980 0.286
11503.59961 0.286
11504.40039 0.2698
11505.20020 0.286
11506.00000 0.269
11506.79980 0.265
11507.59961 0.2586
11508.40039 0.2516
11509.20020 0.2455
11510.00000 0.2407
11510.79980 0.2371
11511.59961 0.2287
11512.40039 0.2214
11513.20020 0.2169
11514.00000 0.2127
11514.79980 0.2085
11515.59961 0.2035
11516.40039 0.2001
11517.20020 0.1973
11518.00000 0.1926
11518.79980 0.187
11519.59961 0.1828
11520.40039 0.1794
11521.20020 0.1758
11522.00000 0.1699
11522.79980 0.1674
11523.59961 0.1646
11524.50000 0.1584
11525.29980 0.1531
11526.09961 0.1492
11526.90039 0.145
11527.70020 0.1442
11528.50000 0.1341
11529.29980 0.1327
11530.09961 0.1304
11530.90039 0.1265
11531.70020 0.124
11532.50000 0.122
11533.29980 0.1192
11534.09961 0.1187
11534.90039 0.1108
11535.70020 0.1094
11536.50000 0.1072
11537.29980 0.1038
11538.09961 0.1008
11538.90039 0.09909
11539.70020 0.09713
11540.50000 0.09377
11541.29980 0.09069
11542.09961 0.08845
11542.90039 0.08705
11543.70020 0.08425
11544.50000 0.08089
11545.29980 0.07893
11546.09961 0.07725
11546.90039 0.07501
11547.70020 0.07165
11548.50000 0.07109
11549.29980 0.06969
11550.09961 0.06801
11550.90039 0.06605
11551.70020 0.06521
11552.50000 0.06409
11553.29980 0.06213
11554.09961 0.05989
11554.90039 0.05849
11555.70020 0.05709
11556.50000 0.05513
11557.29980 0.05289
11558.09961 0.05177
11558.90039 0.05093
11559.70020 0.04925
11560.50000 0.04757
11561.29980 0.04645
11562.09961 0.04533
11562.90039 0.04393
11563.70020 0.04225
11564.50000 0.04168
11565.29980 0.04084
11566.09961 0.04
11566.90039 0.03972
11567.70020 0.03916
11568.50000 0.03832
11569.29980 0.03692
11570.09961 0.03552
11570.90039 0.03552
11571.70020 0.03495
11572.50000 0.03411
11573.29980 0.03355
11574.09961 0.03271
11574.90039 0.03243
11575.70020 0.03131
11576.50000 0.03075
11577.29980 0.03047
11578.09961 0.03018
11578.90039 0.02906
11579.70020 0.02878
11580.50000 0.02822
11581.29980 0.02766
11582.09961 0.0271
11582.90039 0.0257
11583.70020 0.02542
11584.50000 0.02542
11585.29980 0.02485
11586.09961 0.02485
11586.90039 0.02485
11587.70020 0.02457
11588.50000 0.02401
11589.29980 0.02317
11590.20020 0.02233
11591.00000 0.02232
11591.79980 0.02204
11592.59961 0.02176
11593.40039 0.02148
11594.20020 0.02148
11595.00000 0.02092
11595.79980 0.02036
11596.59961 0.02007
11597.40039 0.01979
11598.20020 0.01951
11599.00000 0.01923
11599.79980 0.01923
11600.59961 0.01923
11601.40039 0.01895
11602.20020 0.01866
11603.00000 0.0181
11603.79980 0.0181
11604.59961 0.01754
11605.40039 0.01726
11606.20020 0.01698
11607.00000 0.01698
11607.79980 0.01697
11608.59961 0.01641
11609.40039 0.01585
11610.20020 0.01585
11611.00000 0.01557
11611.79980 0.01529
11612.59961 0.01528
11613.40039 0.01528
11614.20020 0.015
11615.00000 0.01472
11615.79980 0.01472
11616.59961 0.01472
11617.40039 0.0136
11618.20020 0.01303
11619.00000 0.01303
11619.79980 0.01303
11620.59961 0.01275
11621.40039 0.01247
11622.20020 0.01247
11623.00000 0.01247
11623.79980 0.0119
11624.59961 0.01134
11625.40039 0.01134
11626.20020 0.01134
11627.00000 0.01106
11627.79980 0.01078
11628.59961 0.01077
11629.40039 0.01049
11630.20020 0.01049
11631.00000 0.01021
11631.79980 0.01021
11632.59961 0.01021
11633.40039 0.009645
11634.20020 0.009084
11635.00000 0.009083
11635.79980 0.009081
11636.59961 0.009079
11637.40039 0.008798
11638.20020 0.008516
11639.00000 0.008514
11639.79980 0.008233
11640.59961 0.007112
11641.40039 0.006831
11642.20020 0.006829
11643.00000 0.006827
11643.79980 0.006826
11644.59961 0.006544
11645.40039 0.006543
11646.20020 0.006261
11647.00000 0.00598
11647.79980 0.005978
11648.59961 0.005697
11649.40039 0.005695
11650.20020 0.005134
11651.00000 0.005132
11651.79980 0.004571
11652.59961 0.004569
11653.40039 0.004567
11654.20020 0.004566
11655.00000 0.004564
11655.79980 0.004562
11656.59961 0.004281
11657.50000 0.004279
11658.29980 0.004277
12824.12988 0.0
