# %ECSV 0.9
# ---
# datatype:
# - {name: wavelength, unit: Angstrom, datatype: float32}
# - {name: response, datatype: float32}
# meta: !!omap
# - {band_name: F140W}
# - {group_name: NICMOS1}
wavelength response
8571.28906 0.0
9523.65430 0.000403
9524.52930 0.000409
9525.40430 0.000414
9526.27832 0.000417
9527.15332 0.00042
9528.02832 0.000423
9528.90332 0.000426
9529.77832 0.000429
9530.65332 0.00043
9531.52832 0.000431
9532.40430 0.000431
9533.27930 0.000432
9534.15527 0.000432
9535.03027 0.000433
9535.90625 0.000439
9536.78125 0.000445
9537.65723 0.000451
9538.53320 0.000458
9539.40918 0.000464
9540.28516 0.000468
9541.16113 0.000468
9542.03711 0.000468
9542.91406 0.000469
9543.79004 0.000469
9544.66602 0.000469
9545.54297 0.000468
9546.41992 0.000468
9547.29590 0.000467
9548.17285 0.000466
9549.04980 0.000466
9549.92676 0.000465
9550.80371 0.000473
9551.68066 0.000482
9552.55762 0.000491
9553.43457 0.0005
9554.31152 0.000509
9555.18945 0.000516
9556.06738 0.000515
9556.94434 0.000514
9557.82227 0.000512
9558.70020 0.000511
9559.57715 0.00051
9560.45508 0.000514
9561.33301 0.000523
9562.21191 0.000533
9563.08984 0.000542
9563.96777 0.000551
9564.84570 0.00056
9565.72461 0.000564
9566.60254 0.000567
9567.48145 0.00057
9568.35938 0.000573
9569.23828 0.000576
9570.11719 0.00058
9570.99609 0.000589
9571.87500 0.000597
9572.75391 0.000605
9573.63281 0.000614
9574.51172 0.000622
9575.39160 0.000627
9576.27148 0.000626
9577.15039 0.000626
9578.02930 0.000626
9578.90918 0.000625
9579.78906 0.000625
9580.66895 0.000631
9581.54785 0.000638
9582.42773 0.000645
9583.30859 0.000652
9584.18848 0.00066
9585.06836 0.000667
9585.94824 0.000672
9586.82910 0.000676
9587.70898 0.000681
9588.58984 0.000686
9589.46973 0.000691
9590.35059 0.000695
9591.23145 0.000697
9592.11230 0.0007
9592.99316 0.000702
9593.87402 0.000704
9594.75488 0.000706
9595.63574 0.000711
9596.51758 0.000716
9597.39844 0.000721
9598.27930 0.000726
9599.16113 0.000731
9600.04297 0.000736
9600.92383 0.000745
9601.80566 0.000754
9602.68652 0.000763
9603.56934 0.000772
9604.45117 0.000782
9605.33301 0.000786
9606.21582 0.000785
9607.09766 0.000783
9607.97852 0.000781
9608.86230 0.000779
9609.74414 0.000777
9610.62695 0.000785
9611.50977 0.000798
9612.39160 0.00081
9613.27441 0.000822
9614.15723 0.000834
9615.04004 0.000846
9615.92383 0.000851
9616.80664 0.000855
9617.68945 0.00086
9618.57227 0.000865
9619.45605 0.00087
9620.33887 0.000873
9621.22266 0.000874
9622.10645 0.000874
9622.99023 0.000875
9623.87402 0.000875
9624.75781 0.000876
9625.64160 0.000887
9626.52539 0.000901
9627.40918 0.000915
9628.29297 0.00093
9629.17773 0.000944
9630.06152 0.000958
9630.94629 0.000964
9631.83008 0.00097
9632.71484 0.000975
9633.59961 0.000981
9634.48438 0.000987
9635.36914 0.000995
9636.25391 0.001006
9637.13867 0.001017
9638.02344 0.001027
9638.90820 0.001038
9639.79395 0.001049
9640.67871 0.001061
9641.56445 0.001072
9642.44922 0.001083
9643.33496 0.001095
9644.22070 0.001106
9645.10645 0.001116
9645.99219 0.001118
9646.87793 0.001119
9647.76367 0.00112
9648.64941 0.001122
9649.53613 0.001123
9650.42188 0.001129
9651.30762 0.001142
9652.19434 0.001154
9653.08105 0.001166
9653.96680 0.001178
9654.85352 0.001191
9655.74023 0.001206
9656.62695 0.001221
9657.51367 0.001236
9658.40039 0.001252
9659.28711 0.001267
9660.17480 0.001282
9661.06152 0.001292
9661.94922 0.001303
9662.83594 0.001314
9663.72363 0.001325
9664.61035 0.001336
9665.49805 0.001347
9666.38574 0.001358
9667.27344 0.001369
9668.16113 0.00138
9669.04883 0.001391
9669.93652 0.001402
9670.82520 0.001405
9671.71289 0.001408
9672.60156 0.001411
9673.48926 0.001414
9674.37793 0.001417
9675.26660 0.001427
9676.15430 0.001453
9677.04297 0.001479
9677.93164 0.001505
9678.82031 0.001532
9679.70898 0.001558
9680.59863 0.001571
9681.48730 0.001579
9682.37598 0.001587
9683.26562 0.001595
9684.15430 0.001603
9685.04395 0.001611
9685.93359 0.00163
9686.82324 0.001649
9687.71191 0.001669
9688.60156 0.001688
9689.49121 0.001707
9690.38184 0.001724
9691.27148 0.001738
9692.16113 0.001751
9693.05176 0.001764
9693.94141 0.001778
9694.83203 0.001791
9695.72168 0.001813
9696.61230 0.001836
9697.50293 0.001859
9698.39355 0.001882
9699.28418 0.001906
9700.17480 0.001927
9701.06543 0.001944
9701.95605 0.00196
9702.84668 0.001976
9703.73828 0.001992
9704.62891 0.002008
9705.52148 0.002028
9706.41211 0.002051
9707.30273 0.002073
9708.19434 0.002096
9709.08594 0.002118
9709.97754 0.002141
9710.86914 0.002162
9711.76074 0.002183
9712.65234 0.002204
9713.54492 0.002226
9714.43652 0.002247
9715.32910 0.002268
9716.22070 0.00229
9717.11328 0.002312
9718.00586 0.002333
9718.89746 0.002355
9719.79004 0.002376
9720.68262 0.002398
9721.57520 0.00242
9722.46875 0.002441
9723.36133 0.002463
9724.25391 0.002485
9725.14746 0.002507
9726.04004 0.002534
9726.93359 0.002561
9727.82617 0.002587
9728.71973 0.002614
9729.61328 0.002641
9730.50684 0.002669
9731.40039 0.002698
9732.29395 0.002726
9733.18848 0.002755
9734.08105 0.002784
9734.97559 0.002813
9735.86914 0.002845
9736.76367 0.002876
9737.65723 0.002908
9738.55176 0.00294
9739.44629 0.002972
9740.33984 0.003003
9741.23438 0.003033
9742.12891 0.003063
9743.02344 0.003092
9743.91895 0.003122
9744.81348 0.003152
9745.70801 0.003189
9746.60352 0.003229
9747.49805 0.003268
9748.39355 0.003308
9749.28809 0.003347
9750.18359 0.003384
9751.07910 0.003411
9751.97461 0.003438
9752.87012 0.003465
9753.76562 0.003492
9754.66113 0.003519
9755.55762 0.003554
9756.45312 0.003593
9757.34863 0.003633
9758.24512 0.003672
9759.14062 0.003712
9760.03711 0.003752
9760.93359 0.003795
9761.83008 0.003838
9762.72656 0.003882
9763.62305 0.003925
9764.51953 0.003969
9765.41602 0.004014
9766.31348 0.004061
9767.20996 0.004108
9768.10645 0.004155
9769.00391 0.004202
9769.90039 0.004249
9770.79785 0.004299
9771.69531 0.00435
9772.59277 0.0044
9773.49023 0.004451
9774.38770 0.004501
9775.28516 0.004552
9776.18262 0.004601
9777.08008 0.00465
9777.97852 0.004699
9778.87598 0.004748
9779.77441 0.004797
9780.67188 0.00485
9781.57031 0.004906
9782.46875 0.004961
9783.36719 0.005016
9784.26562 0.005072
9785.16406 0.005127
9786.06348 0.005182
9786.96094 0.005237
9787.85938 0.005292
9788.75879 0.005347
9789.65723 0.005402
9790.55664 0.005463
9791.45605 0.005528
9792.35352 0.005592
9793.25391 0.005657
9794.15332 0.005721
9795.05273 0.005787
9795.95215 0.005858
9796.85156 0.005929
9797.75098 0.006
9798.65137 0.006071
9799.55078 0.006142
9800.45117 0.006218
9801.35059 0.006297
9802.25098 0.006377
9803.15137 0.006457
9804.05078 0.006537
9804.95117 0.006617
9805.85156 0.00669
9806.75195 0.006763
9807.65332 0.006836
9808.55371 0.006909
9809.45410 0.006982
9810.35547 0.007057
9811.25586 0.007135
9812.15723 0.007214
9813.05762 0.007292
9813.95898 0.007371
9814.86035 0.00745
9815.76172 0.007543
9816.66309 0.007639
9817.56445 0.007735
9818.46582 0.007832
9819.36816 0.007928
9820.26953 0.008023
9821.17090 0.008114
9822.07324 0.008206
9822.97461 0.008297
9823.87695 0.008389
9824.77930 0.00848
9825.68164 0.00858
9826.58398 0.008682
9827.48633 0.008785
9828.38867 0.008887
9829.29102 0.008989
9830.19336 0.009094
9831.09668 0.009209
9831.99902 0.009323
9832.90234 0.009437
9833.80469 0.009552
9834.70801 0.009666
9835.61133 0.009782
9836.51465 0.009898
9837.41797 0.010014
9838.32129 0.010131
9839.22461 0.010247
9840.12793 0.010366
9841.03223 0.010494
9841.93555 0.010622
9842.83887 0.01075
9843.74316 0.010878
9844.64746 0.011006
9845.55078 0.011132
9846.45508 0.011257
9847.35938 0.011383
9848.26367 0.011508
9849.16797 0.011633
9850.07227 0.01176
9850.97754 0.011901
9851.88184 0.012043
9852.78613 0.012185
9853.69141 0.012327
9854.59570 0.012468
9855.50098 0.012617
9856.40625 0.012772
9857.31152 0.012927
9858.21680 0.013081
9859.12207 0.013236
9860.02734 0.013391
9860.93262 0.013559
9861.83789 0.013728
9862.74316 0.013896
9863.64941 0.014064
9864.55469 0.014232
9865.46094 0.014406
9866.36719 0.014584
9867.27246 0.014763
9868.17871 0.014941
9869.08496 0.01512
9869.99121 0.015299
9870.89746 0.015476
9871.80469 0.015654
9872.71094 0.015832
9873.61719 0.01601
9874.52441 0.016188
9875.43066 0.016374
9876.33789 0.016567
9877.24512 0.016761
9878.15137 0.016955
9879.05859 0.017149
9879.96582 0.017344
9880.87305 0.01754
9881.78027 0.017737
9882.68848 0.017934
9883.59570 0.018131
9884.50293 0.018327
9885.41113 0.018536
9886.31836 0.018759
9887.22656 0.018983
9888.13477 0.019206
9889.04297 0.019429
9889.95117 0.019653
9890.85938 0.019894
9891.76758 0.020136
9892.67578 0.020379
9893.58398 0.020621
9894.49219 0.020864
9895.40137 0.021107
9896.30957 0.02135
9897.21875 0.021593
9898.12793 0.021836
9899.03613 0.022079
9899.94531 0.022323
9900.85352 0.022575
9901.76367 0.022828
9902.67285 0.023081
9903.58203 0.023334
9904.49219 0.023588
9905.40137 0.023848
9906.31055 0.024117
9907.22070 0.024387
9908.13086 0.024656
9909.04004 0.024925
9909.95020 0.025195
9910.86035 0.025471
9911.77148 0.025746
9912.68066 0.026023
9913.59082 0.026299
9914.50098 0.026575
9915.41211 0.026858
9916.32227 0.027148
9917.23242 0.027438
9918.14355 0.027729
9919.05469 0.028019
9919.96484 0.02831
9920.87598 0.028623
9921.78711 0.028937
9922.69824 0.029251
9923.60938 0.029565
9924.52148 0.029879
9925.43262 0.030206
9926.34375 0.030545
9927.25488 0.030884
9928.16699 0.031224
9929.07812 0.031564
9929.99023 0.031904
9930.90234 0.032233
9931.81445 0.032561
9932.72656 0.03289
9933.63867 0.033219
9934.55078 0.033548
9935.46289 0.033883
9936.37500 0.034223
9937.28809 0.034564
9938.20020 0.034905
9939.11328 0.035246
9940.02539 0.035588
9940.93848 0.03594
9941.85156 0.036292
9942.76465 0.036644
9943.67676 0.036995
9944.59082 0.037348
9945.50391 0.037709
9946.41699 0.038078
9947.33008 0.038447
9948.24414 0.038816
9949.15723 0.039185
9950.07129 0.039556
9950.98438 0.039933
9951.89844 0.040311
9952.81348 0.040688
9953.72656 0.041066
9954.64062 0.041445
9955.55469 0.041831
9956.46875 0.042224
9957.38281 0.042617
9958.29785 0.04301
9959.21191 0.043403
9960.12598 0.043798
9961.04102 0.044204
9961.95605 0.04461
9962.87012 0.045016
9963.78516 0.045422
9964.70020 0.045829
9965.61523 0.046227
9966.53027 0.046621
9967.44629 0.047015
9968.36133 0.047409
9969.27637 0.047803
9970.19238 0.048197
9971.10742 0.048589
9972.02344 0.048981
9972.93945 0.049373
9973.85352 0.049765
9974.77148 0.050158
9975.68652 0.050572
9976.60254 0.050994
9977.51855 0.051416
9978.43555 0.051838
9979.35156 0.05226
9980.26758 0.05268
9981.18457 0.053095
9982.10059 0.05351
9983.01758 0.053925
9983.93457 0.05434
9984.85156 0.054756
9985.76855 0.055192
9986.68555 0.055632
9987.60254 0.056073
9988.51953 0.056513
9989.43652 0.056954
9990.35352 0.057388
9991.27148 0.057813
9992.18848 0.058237
9993.10645 0.058662
9994.02441 0.059087
9994.94141 0.059512
9995.85938 0.05993
9996.77734 0.060349
9997.69531 0.060768
9998.61328 0.061186
9999.53223 0.061606
10000.45020 0.062019
10001.37012 0.062425
10002.29004 0.062832
10003.20996 0.063239
10004.12012 0.063646
10005.04004 0.064054
10005.95996 0.06448
10006.87988 0.064906
10007.79980 0.065333
10008.71973 0.065759
10009.63965 0.066186
10010.55957 0.066609
10011.48047 0.067029
10012.40039 0.067449
10013.30957 0.067869
10014.23047 0.06829
10015.15039 0.06871
10016.07031 0.069127
10016.99023 0.069544
10017.91016 0.069961
10018.83008 0.070378
10019.75000 0.070796
10020.66992 0.071215
10021.58984 0.071636
10022.50977 0.072056
10023.42969 0.072476
10024.34961 0.072897
10025.28027 0.07331
10026.20020 0.073705
10027.12012 0.0741
10028.04004 0.074495
10028.95996 0.07489
10029.87988 0.075285
10030.79980 0.075662
10031.71973 0.076036
10032.63965 0.07641
10033.55957 0.076784
10034.49023 0.077159
10035.41016 0.077532
10036.33008 0.077903
10037.25000 0.078275
10038.16992 0.078646
10039.08984 0.079018
10040.01953 0.07939
10040.94043 0.079747
10041.86035 0.080104
10042.78027 0.080461
10043.70020 0.080818
10044.62988 0.081176
10045.54980 0.081527
10046.46973 0.081873
10047.38965 0.082219
10048.32031 0.082565
10049.24023 0.082911
10050.16016 0.083256
10051.08008 0.083593
10052.00977 0.08393
10052.92969 0.084266
10053.84961 0.084603
10054.78027 0.084941
10055.70020 0.085272
10056.62012 0.085602
10057.54980 0.085931
10058.46973 0.086261
10059.38965 0.086592
10060.32031 0.086906
10061.24023 0.087191
10062.16992 0.087476
10063.08984 0.087761
10064.00977 0.088046
10064.94043 0.088331
10065.86035 0.088607
10066.79004 0.088884
10067.70996 0.089159
10068.63965 0.089436
10069.55957 0.089712
10070.49023 0.089978
10071.41016 0.090233
10072.33008 0.090489
10073.25977 0.090745
10074.17969 0.091
10075.11035 0.091255
10076.04004 0.091504
10076.95996 0.091752
10077.88965 0.092001
10078.80957 0.092249
10079.74023 0.092498
10080.66016 0.092734
10081.58984 0.092966
10082.50977 0.093198
10083.44043 0.093429
10084.37012 0.093661
10085.29004 0.093887
10086.21973 0.094097
10087.13965 0.094308
10088.07031 0.094519
10089.00000 0.09473
10089.91992 0.094941
10090.84961 0.095124
10091.78027 0.095305
10092.70020 0.095485
10093.62988 0.095666
10094.55957 0.095847
10095.48047 0.096018
10096.41016 0.096179
10097.33984 0.096341
10098.26953 0.096502
10099.19043 0.096664
10100.12012 0.096823
10101.04980 0.096966
10101.98047 0.09711
10102.90039 0.097253
10103.83008 0.097396
10104.75977 0.097539
10105.69043 0.097671
10106.61035 0.097799
10107.54004 0.097927
10108.46973 0.098055
10109.40039 0.098184
10110.33008 0.098306
10111.25977 0.098417
10112.17969 0.098528
10113.11035 0.098639
10114.04004 0.09875
10114.96973 0.098861
10115.90039 0.098955
10116.83008 0.099049
10117.75977 0.099143
10118.69043 0.099237
10119.62012 0.099331
10120.54004 0.099418
10121.46973 0.099501
10122.40039 0.099584
10123.33008 0.099667
10124.25977 0.09975
10125.19043 0.099828
10126.12012 0.099884
10127.04980 0.09994
10127.98047 0.099996
10128.91016 0.100052
10129.83984 0.100108
10130.76953 0.100158
10131.70020 0.100207
10132.62988 0.100256
10133.55957 0.100305
10134.49023 0.100354
10135.41992 0.100392
10136.36035 0.100415
10137.29004 0.100438
10138.21973 0.100461
10139.15039 0.100484
10140.08008 0.100507
10141.00977 0.100531
10141.94043 0.100555
10142.87012 0.100579
10143.79980 0.100602
10144.74023 0.100626
10145.66992 0.100639
10146.59961 0.100646
10147.53027 0.100654
10148.45996 0.100662
10149.38965 0.100669
10150.33008 0.100673
10151.25977 0.100669
10152.19043 0.100666
10153.12012 0.100662
10154.05957 0.100658
10154.99023 0.100654
10155.91992 0.100639
10156.84961 0.100624
10157.79004 0.100608
10158.71973 0.100593
10159.65039 0.100577
10160.58008 0.100553
10161.51953 0.100524
10162.45020 0.100495
10163.37988 0.100465
10164.32031 0.100436
10165.25000 0.100407
10166.17969 0.100381
10167.12012 0.100355
10168.04980 0.100329
10168.99023 0.100302
10169.91992 0.100276
10170.84961 0.100242
10171.79004 0.100207
10172.71973 0.100172
10173.66016 0.100138
10174.58984 0.100103
10175.51953 0.100063
10176.45996 0.100018
10177.38965 0.099974
10178.33008 0.099929
10179.25977 0.099884
10180.20020 0.099838
10181.12988 0.099786
10182.07031 0.099734
10183.00000 0.099682
10183.94043 0.09963
10184.87012 0.099577
10185.80957 0.099519
10186.74023 0.09946
10187.67969 0.099402
10188.61035 0.099342
10189.54980 0.099283
10190.49023 0.099228
10191.41992 0.099176
10192.36035 0.099124
10193.29004 0.099072
10194.23047 0.09902
10195.16992 0.098967
10196.09961 0.098909
10197.04004 0.098852
10197.96973 0.098794
10198.91016 0.098737
10199.84961 0.098679
10200.78027 0.098622
10201.71973 0.098566
10202.66016 0.098509
10203.58984 0.098452
10204.53027 0.098395
10205.46973 0.098338
10206.41016 0.098279
10207.33984 0.09822
10208.28027 0.098162
10209.21973 0.098103
10210.15039 0.098044
10211.08984 0.097985
10212.03027 0.097927
10212.96973 0.097868
10213.91016 0.09781
10214.83984 0.097751
10215.78027 0.097694
10216.71973 0.097638
10217.66016 0.097582
10218.59961 0.097526
10219.53027 0.09747
10220.46973 0.097413
10221.41016 0.097356
10222.34961 0.097299
10223.29004 0.097241
10224.23047 0.097184
10225.16992 0.097127
10226.11035 0.097073
10227.04004 0.097018
10227.98047 0.096964
10228.91992 0.096909
10229.86035 0.096854
10230.79980 0.0968
10231.74023 0.096746
10232.67969 0.096692
10233.62012 0.096638
10234.55957 0.096584
10235.50000 0.096533
10236.44043 0.096484
10237.37988 0.096436
10238.32031 0.096387
10239.25977 0.096338
10240.20020 0.096289
10241.13965 0.096238
10242.08008 0.096186
10243.01953 0.096135
10243.95996 0.096083
10244.90039 0.096032
10245.83984 0.095985
10246.79004 0.095939
10247.73047 0.095893
10248.66992 0.095847
10249.61035 0.095801
10250.54980 0.095758
10251.49023 0.095718
10252.42969 0.095677
10253.37012 0.095637
10254.32031 0.095596
10255.25977 0.095557
10256.20020 0.095523
10257.13965 0.095488
10258.08008 0.095454
10259.01953 0.095419
10259.96973 0.095385
10260.91016 0.095349
10261.84961 0.095314
10262.79004 0.095278
10263.74023 0.095243
10264.67969 0.095207
10265.62012 0.095175
10266.55957 0.095144
10267.50977 0.095113
10268.45020 0.095082
10269.38965 0.095052
10270.33008 0.095023
10271.28027 0.094998
10272.21973 0.094972
10273.16992 0.094947
10274.11035 0.094922
10275.04980 0.094897
10276.00000 0.094877
10276.94043 0.094856
10277.87988 0.094836
10278.83008 0.094816
10279.76953 0.094795
10280.70996 0.094779
10281.66016 0.094764
10282.59961 0.094748
10283.54980 0.094733
10284.49023 0.094718
10285.44043 0.094705
10286.37988 0.094695
10287.32031 0.094685
10288.26953 0.094674
10289.20996 0.094664
10290.16016 0.094655
10291.09961 0.094648
10292.04980 0.094642
10292.99023 0.094635
10293.94043 0.094629
10294.87988 0.094623
10295.83008 0.094621
10296.78027 0.09462
10297.71973 0.094619
10298.66992 0.094619
10299.61035 0.094618
10300.55957 0.094622
10301.50000 0.094631
10302.45020 0.094639
10303.40039 0.094648
10304.33984 0.094656
10305.29004 0.094664
10306.23047 0.094669
10307.17969 0.094675
10308.12988 0.09468
10309.07031 0.094685
10310.01953 0.094691
10310.96973 0.094702
10311.91992 0.094713
10312.86035 0.094724
10313.80957 0.094735
10314.75977 0.094745
10315.70020 0.094757
10316.65039 0.094769
10317.59961 0.094781
10318.54004 0.094793
10319.49023 0.094805
10320.44043 0.094827
10321.38965 0.094858
10322.33984 0.09489
10323.28027 0.094922
10324.23047 0.094954
10325.17969 0.094984
10326.12988 0.095007
10327.08008 0.09503
10328.01953 0.095054
10328.96973 0.095077
10329.91992 0.0951
10330.87012 0.095133
10331.82031 0.095167
10332.76953 0.095201
10333.71973 0.095234
10334.66992 0.095268
10335.61035 0.095304
10336.55957 0.095339
10337.50977 0.095375
10338.45996 0.095411
10339.41016 0.095447
10340.36035 0.095485
10341.30957 0.095524
10342.25977 0.095563
10343.20996 0.095602
10344.16016 0.095641
10345.11035 0.095682
10346.05957 0.095731
10347.00977 0.095781
10347.95996 0.095831
10348.91016 0.09588
10349.86035 0.09593
10350.80957 0.095977
10351.75977 0.096024
10352.70996 0.096071
10353.66016 0.096118
10354.61035 0.096165
10355.55957 0.096214
10356.51953 0.096265
10357.46973 0.096315
10358.41992 0.096366
10359.37012 0.096417
10360.32031 0.096471
10361.26953 0.096531
10362.21973 0.096592
10363.16992 0.096652
10364.12988 0.096712
10365.08008 0.096773
10366.03027 0.096828
10366.98047 0.096883
10367.92969 0.096938
10368.88965 0.096993
10369.83984 0.097048
10370.79004 0.097117
10371.74023 0.097188
10372.69043 0.09726
10373.65039 0.097331
10374.59961 0.097403
10375.54980 0.097471
10376.50000 0.097537
10377.45996 0.097603
10378.41016 0.097669
10379.36035 0.097735
10380.32031 0.097802
10381.26953 0.097871
10382.21973 0.09794
10383.17969 0.098009
10384.12988 0.098078
10385.08008 0.098147
10386.04004 0.098215
10386.99023 0.098283
10387.95020 0.09835
10388.90039 0.098418
10389.84961 0.098485
10390.80957 0.098561
10391.75977 0.098637
10392.71973 0.098714
10393.66992 0.098791
10394.62988 0.098868
10395.58008 0.09894
10396.53027 0.099009
10397.49023 0.099078
10398.44043 0.099146
10399.40039 0.099215
10400.34961 0.099287
10401.30957 0.099363
10402.25977 0.09944
10403.21973 0.099516
10404.16992 0.099593
10405.12988 0.09967
10406.08008 0.09975
10407.04004 0.099829
10408.00000 0.099909
10408.95020 0.099989
10409.91016 0.100069
10410.86035 0.100145
10411.82031 0.100221
10412.78027 0.100297
10413.73047 0.100372
10414.69043 0.100448
10415.65039 0.100529
10416.59961 0.100611
10417.55957 0.100693
10418.50977 0.100776
10419.46973 0.100858
10420.42969 0.100937
10421.38965 0.10101
10422.33984 0.101084
10423.29980 0.101158
10424.25977 0.101231
10425.20996 0.101307
10426.16992 0.101391
10427.12988 0.101475
10428.08984 0.101559
10429.04004 0.101643
10430.00000 0.101727
10430.95996 0.101809
10431.91992 0.101892
10432.87012 0.101975
10433.83008 0.102058
10434.79004 0.10214
10435.75000 0.102223
10436.70996 0.102306
10437.66992 0.102388
10438.62012 0.102471
10439.58008 0.102554
10440.54004 0.102636
10441.50000 0.102717
10442.45996 0.102798
10443.41992 0.102879
10444.37988 0.10296
10445.33984 0.103039
10446.29980 0.103114
10447.25000 0.103189
10448.20996 0.103265
10449.16992 0.10334
10450.12988 0.103415
10451.08984 0.103491
10452.04980 0.103567
10453.00977 0.103643
10453.96973 0.103719
10454.92969 0.103794
10455.88965 0.103875
10456.84961 0.103957
10457.80957 0.104038
10458.76953 0.104119
10459.73047 0.104201
10460.69043 0.104278
10461.66016 0.104353
10462.62012 0.104428
10463.58008 0.104503
10464.54004 0.104578
10465.50000 0.104657
10466.45996 0.104741
10467.41992 0.104824
10468.37988 0.104908
10469.33984 0.104992
10470.29980 0.10507
10471.26953 0.105138
10472.23047 0.105206
10473.19043 0.105274
10474.15039 0.105342
10475.11035 0.10541
10476.07031 0.105483
10477.04004 0.105555
10478.00000 0.105627
10478.95996 0.1057
10479.91992 0.105772
10480.88965 0.105838
10481.84961 0.105904
10482.80957 0.105969
10483.76953 0.106035
10484.74023 0.1061
10485.70020 0.106169
10486.66016 0.106239
10487.62988 0.106309
10488.58984 0.106379
10489.54980 0.106449
10490.50977 0.106516
10491.48047 0.106581
10492.44043 0.106646
10493.40039 0.106711
10494.37012 0.106776
10495.33008 0.106843
10496.29980 0.106914
10497.25977 0.106985
10498.21973 0.107056
10499.19043 0.107127
10500.15039 0.107197
10501.12012 0.107258
10502.08008 0.107319
10503.04004 0.10738
10504.00977 0.107441
10504.96973 0.107502
10505.94043 0.107571
10506.90039 0.10764
10507.87012 0.10771
10508.83008 0.107779
10509.79980 0.107849
10510.75977 0.107909
10511.73047 0.107968
10512.69043 0.108026
10513.66016 0.108084
10514.62012 0.108142
10515.58984 0.1082
10516.55957 0.108259
10517.51953 0.108317
10518.49023 0.108375
10519.45020 0.108434
10520.41992 0.108492
10521.37988 0.108551
10522.34961 0.108609
10523.32031 0.108668
10524.28027 0.108726
10525.25000 0.108784
10526.21973 0.10884
10527.17969 0.108896
10528.15039 0.108952
10529.12012 0.109007
10530.08008 0.109063
10531.04980 0.109117
10532.01953 0.109172
10532.99023 0.109227
10533.95020 0.109281
10534.91992 0.109336
10535.88965 0.10938
10536.84961 0.109424
10537.82031 0.109468
10538.79004 0.109512
10539.75977 0.109556
10540.73047 0.109601
10541.69043 0.109647
10542.66016 0.109693
10543.62988 0.10974
10544.59961 0.109786
10545.57031 0.109833
10546.54004 0.109881
10547.50000 0.10993
10548.46973 0.109978
10549.44043 0.110026
10550.41016 0.11007
10551.37988 0.110108
10552.34961 0.110146
10553.32031 0.110185
10554.29004 0.110223
10555.25000 0.110262
10556.21973 0.110304
10557.19043 0.110346
10558.16016 0.110389
10559.12988 0.110431
10560.09961 0.110473
10561.07031 0.110512
10562.04004 0.110552
10563.00977 0.110592
10563.98047 0.110632
10564.95020 0.110671
10565.91992 0.110702
10566.88965 0.110732
10567.86035 0.110763
10568.83008 0.110793
10569.79980 0.110823
10570.76953 0.110859
10571.74023 0.110897
10572.70996 0.110934
10573.69043 0.110972
10574.66016 0.111009
10575.62988 0.111045
10576.59961 0.111081
10577.57031 0.111116
10578.54004 0.111151
10579.50977 0.111187
10580.49023 0.111217
10581.45996 0.111244
10582.42969 0.11127
10583.40039 0.111296
10584.37012 0.111323
10585.33984 0.111349
10586.32031 0.111376
10587.29004 0.111404
10588.25977 0.111431
10589.23047 0.111458
10590.20996 0.111486
10591.17969 0.111514
10592.15039 0.111542
10593.12012 0.11157
10594.09961 0.111598
10595.07031 0.111626
10596.04004 0.111654
10597.00977 0.111683
10597.99023 0.111711
10598.95996 0.11174
10599.92969 0.111768
10600.91016 0.111789
10601.87988 0.111809
10602.84961 0.11183
10603.83008 0.11185
10604.79980 0.11187
10605.78027 0.111884
10606.75000 0.111895
10607.71973 0.111907
10608.70020 0.111919
10609.66992 0.11193
10610.65039 0.111947
10611.62012 0.111965
10612.58984 0.111984
10613.57031 0.112003
10614.54004 0.112022
10615.51953 0.112037
10616.49023 0.11205
10617.46973 0.112063
10618.44043 0.112075
10619.41992 0.112088
10620.38965 0.112101
10621.37012 0.112116
10622.33984 0.112131
10623.32031 0.112146
10624.29980 0.112161
10625.26953 0.112174
10626.25000 0.112182
10627.21973 0.11219
10628.20020 0.112198
10629.16992 0.112206
10630.15039 0.112216
10631.12988 0.112233
10632.09961 0.11225
10633.08008 0.112267
10634.05957 0.112284
10635.03027 0.112301
10636.00977 0.112314
10636.99023 0.112326
10637.95996 0.112339
10638.94043 0.112351
10639.91992 0.112364
10640.88965 0.112375
10641.87012 0.112385
10642.84961 0.112396
10643.83008 0.112407
10644.79980 0.112417
10645.78027 0.112435
10646.75977 0.112455
10647.74023 0.112475
10648.70996 0.112494
10649.69043 0.112514
10650.66992 0.112528
10651.65039 0.112538
10652.62988 0.112549
10653.59961 0.11256
10654.58008 0.11257
10655.55957 0.11258
10656.54004 0.112589
10657.51953 0.112599
10658.50000 0.112608
10659.46973 0.112618
10660.45020 0.112632
10661.42969 0.112652
10662.41016 0.112672
10663.38965 0.112692
10664.37012 0.112713
10665.34961 0.112731
10666.33008 0.112745
10667.30957 0.112759
10668.29004 0.112773
10669.26953 0.112788
10670.25000 0.112803
10671.23047 0.112819
10672.20996 0.112835
10673.19043 0.112851
10674.16992 0.112867
10675.15039 0.112883
10676.12988 0.1129
10677.11035 0.112918
10678.08984 0.112935
10679.07031 0.112952
10680.04980 0.11297
10681.03027 0.112988
10682.00977 0.113007
10682.99023 0.113025
10683.96973 0.113043
10684.95996 0.113062
10685.94043 0.113078
10686.91992 0.113095
10687.90039 0.113112
10688.87988 0.113128
10689.86035 0.113145
10690.83984 0.113159
10691.83008 0.113173
10692.80957 0.113187
10693.79004 0.113201
10694.76953 0.113216
10695.75000 0.113239
10696.74023 0.113264
10697.71973 0.11329
10698.70020 0.113315
10699.67969 0.113341
10700.66992 0.113375
10701.65039 0.113413
10702.62988 0.113452
10703.61035 0.11349
10704.59961 0.113528
10705.58008 0.113554
10706.55957 0.113571
10707.54004 0.113588
10708.53027 0.113604
10709.50977 0.113621
10710.50000 0.113642
10711.48047 0.113668
10712.45996 0.113693
10713.45020 0.113719
10714.42969 0.113744
10715.41016 0.113775
10716.40039 0.113814
10717.37988 0.113852
10718.37012 0.113891
10719.34961 0.113929
10720.33008 0.113964
10721.32031 0.113992
10722.29980 0.11402
10723.29004 0.114048
10724.26953 0.114076
10725.25977 0.114107
10726.24023 0.114147
10727.23047 0.114187
10728.20996 0.114228
10729.20020 0.114268
10730.17969 0.114307
10731.16992 0.114339
10732.15039 0.114371
10733.13965 0.114404
10734.12012 0.114436
10735.11035 0.114469
10736.09961 0.114506
10737.08008 0.114544
10738.07031 0.114582
10739.04980 0.114619
10740.04004 0.114657
10741.03027 0.114691
10742.00977 0.114725
10743.00000 0.11476
10743.99023 0.114794
10744.96973 0.114829
10745.95996 0.114871
10746.95020 0.114914
10747.92969 0.114957
10748.91992 0.115
10749.91016 0.115043
10750.88965 0.115082
10751.87988 0.115121
10752.87012 0.11516
10753.86035 0.115199
10754.83984 0.115238
10755.83008 0.115273
10756.82031 0.115308
10757.80957 0.115342
10758.79004 0.115377
10759.78027 0.115412
10760.76953 0.11545
10761.75977 0.115489
10762.75000 0.115529
10763.74023 0.115568
10764.71973 0.115608
10765.70996 0.115653
10766.70020 0.115701
10767.69043 0.11575
10768.67969 0.115798
10769.66992 0.115846
10770.66016 0.11589
10771.65039 0.115932
10772.63965 0.115974
10773.62988 0.116016
10774.61035 0.116059
10775.59961 0.116105
10776.58984 0.116154
10777.58008 0.116203
10778.57031 0.116252
10779.55957 0.116302
10780.54980 0.116349
10781.54004 0.116394
10782.53027 0.11644
10783.51953 0.116486
10784.50977 0.116531
10785.50000 0.116576
10786.49023 0.116621
10787.48047 0.116666
10788.46973 0.116711
10789.45996 0.116756
10790.45996 0.116803
10791.45020 0.11685
10792.44043 0.116898
10793.42969 0.116946
10794.41992 0.116994
10795.41016 0.117041
10796.40039 0.117088
10797.38965 0.117136
10798.38965 0.117183
10799.37988 0.11723
10800.37012 0.117279
10801.36035 0.117331
10802.34961 0.117384
10803.33984 0.117436
10804.33984 0.117488
10805.33008 0.117538
10806.32031 0.117584
10807.30957 0.11763
10808.30957 0.117676
10809.29980 0.117722
10810.29004 0.11777
10811.28027 0.117823
10812.28027 0.117876
10813.26953 0.117928
10814.25977 0.117981
10815.25000 0.118032
10816.25000 0.11808
10817.24023 0.118128
10818.24023 0.118176
10819.23047 0.118224
10820.21973 0.118271
10821.21973 0.118315
10822.20996 0.118359
10823.20020 0.118402
10824.20020 0.118446
10825.19043 0.118492
10826.19043 0.118546
10827.17969 0.1186
10828.16992 0.118655
10829.16992 0.118709
10830.16016 0.118762
10831.16016 0.11881
10832.15039 0.118858
10833.15039 0.118906
10834.13965 0.118954
10835.13965 0.119003
10836.12988 0.119058
10837.12988 0.119113
10838.12012 0.119168
10839.12012 0.119224
10840.11035 0.119278
10841.11035 0.119328
10842.09961 0.119379
10843.09961 0.119429
10844.08984 0.119479
10845.08984 0.119529
10846.08984 0.119577
10847.08008 0.119624
10848.08008 0.119672
10849.07031 0.11972
10850.07031 0.119767
10851.07031 0.119807
10852.05957 0.119848
10853.05957 0.119888
10854.05957 0.119929
10855.04980 0.11997
10856.04980 0.120031
10857.04980 0.120093
10858.04004 0.120154
10859.04004 0.120215
10860.04004 0.120276
10861.04004 0.120312
10862.03027 0.120348
10863.03027 0.120385
10864.03027 0.120421
10865.03027 0.120458
10866.01953 0.120512
10867.01953 0.120565
10868.01953 0.120618
10869.01953 0.120672
10870.01953 0.120725
10871.00977 0.120776
10872.00977 0.120826
10873.00977 0.120877
10874.00977 0.120927
10875.00977 0.120978
10876.00977 0.121031
10877.00000 0.121084
10878.00000 0.121137
10879.00000 0.121191
10880.00000 0.121244
10881.00000 0.121291
10882.00000 0.121337
10883.00000 0.121384
10884.00000 0.121431
10885.00000 0.121478
10886.00000 0.121526
10887.00000 0.121575
10888.00000 0.121624
10889.00000 0.121673
10890.00000 0.121722
10891.00000 0.121772
10892.00000 0.121822
10893.00000 0.121872
10894.00000 0.121922
10895.00000 0.121973
10896.00000 0.122023
10897.00000 0.122073
10898.00000 0.122123
10899.00000 0.122173
10900.00000 0.122223
10901.00000 0.122271
10902.00000 0.122319
10903.00000 0.122367
10904.00000 0.122415
10905.00977 0.122463
10906.00977 0.122511
10907.00977 0.122559
10908.00977 0.122607
10909.00977 0.122655
10910.00977 0.122703
10911.01953 0.122751
10912.01953 0.122799
10913.01953 0.122847
10914.01953 0.122895
10915.01953 0.122943
10916.03027 0.122986
10917.03027 0.12303
10918.03027 0.123074
10919.04004 0.123117
10920.04004 0.123161
10921.04004 0.12321
10922.04004 0.123259
10923.04980 0.123308
10924.04980 0.123357
10925.04980 0.123407
10926.05957 0.123457
10927.05957 0.123507
10928.05957 0.123558
10929.07031 0.123608
10930.07031 0.123658
10931.07031 0.123706
10932.08008 0.123754
10933.08008 0.123802
10934.08008 0.12385
10935.08984 0.123898
10936.08984 0.123945
10937.09961 0.123991
10938.09961 0.124038
10939.11035 0.124084
10940.11035 0.124131
10941.12012 0.124177
10942.12012 0.124223
10943.12988 0.12427
10944.12988 0.124316
10945.12988 0.124362
10946.13965 0.124404
10947.15039 0.124447
10948.15039 0.12449
10949.16016 0.124533
10950.16016 0.124576
10951.16992 0.124622
10952.16992 0.124667
10953.17969 0.124713
10954.17969 0.124758
10955.19043 0.124804
10956.20020 0.124848
10957.20020 0.124892
10958.20996 0.124936
10959.20996 0.12498
10960.21973 0.125024
10961.23047 0.125064
10962.23047 0.125104
10963.24023 0.125145
10964.25000 0.125185
10965.25000 0.125226
10966.25977 0.125268
10967.26953 0.12531
10968.28027 0.125353
10969.28027 0.125395
10970.29004 0.125439
10971.29980 0.125487
10972.29980 0.125535
10973.30957 0.125584
10974.32031 0.125632
10975.33008 0.125676
10976.33984 0.125712
10977.33984 0.125748
10978.34961 0.125783
10979.36035 0.125819
10980.37012 0.125857
10981.37988 0.125901
10982.37988 0.125945
10983.38965 0.12599
10984.40039 0.126034
10985.41016 0.126075
10986.41992 0.126111
10987.42969 0.126147
10988.44043 0.126184
10989.45020 0.12622
10990.45996 0.126258
10991.45996 0.126298
10992.46973 0.126339
10993.48047 0.126379
10994.49023 0.12642
10995.50000 0.126457
10996.50977 0.126491
10997.51953 0.126525
10998.53027 0.126559
10999.54004 0.126592
11000.54980 0.126612
11001.55957 0.12662
11002.57031 0.126628
11003.58008 0.126635
11004.58984 0.126643
11005.59961 0.12665
11006.62012 0.126657
11007.62988 0.126663
11008.63965 0.12667
11009.65039 0.126676
11010.66016 0.126689
11011.66992 0.126704
11012.67969 0.126719
11013.69043 0.126734
11014.70020 0.12675
11015.70996 0.126753
11016.73047 0.126752
11017.74023 0.126752
11018.75000 0.126751
11019.75977 0.12675
11020.76953 0.126754
11021.79004 0.12676
11022.79980 0.126767
11023.80957 0.126773
11024.82031 0.126779
11025.83008 0.126795
11026.84961 0.126812
11027.86035 0.12683
11028.87012 0.126847
11029.88965 0.126864
11030.90039 0.126869
11031.91016 0.126871
11032.91992 0.126874
11033.94043 0.126877
11034.95020 0.126879
11035.95996 0.12688
11036.98047 0.126881
11037.99023 0.126881
11039.00000 0.126882
11040.01953 0.126883
11041.03027 0.126897
11042.04980 0.126912
11043.05957 0.126926
11044.07031 0.126941
11045.08984 0.126954
11046.09961 0.126957
11047.12012 0.12696
11048.12988 0.126962
11049.15039 0.126965
11050.16016 0.126968
11051.16992 0.12697
11052.19043 0.126973
11053.20996 0.126975
11054.21973 0.126978
11055.24023 0.126982
11056.25000 0.126992
11057.26953 0.127001
11058.28027 0.127011
11059.29980 0.127021
11060.30957 0.12703
11061.33008 0.127035
11062.33984 0.127041
11063.36035 0.127047
11064.37988 0.127052
11065.38965 0.127057
11066.41016 0.127059
11067.41992 0.127061
11068.44043 0.127063
11069.45996 0.127066
11070.46973 0.127069
11071.49023 0.127074
11072.50977 0.127079
11073.51953 0.127084
11074.54004 0.127089
11075.55957 0.127094
11076.57031 0.1271
11077.58984 0.127105
11078.61035 0.127111
11079.62988 0.127116
11080.63965 0.127118
11081.66016 0.127117
11082.67969 0.127117
11083.70020 0.127116
11084.70996 0.127116
11085.73047 0.127119
11086.75000 0.127123
11087.76953 0.127127
11088.79004 0.127131
11089.79980 0.127135
11090.82031 0.127135
11091.83984 0.127134
11092.86035 0.127132
11093.87988 0.127131
11094.90039 0.12713
11095.91992 0.127136
11096.92969 0.127143
11097.95020 0.12715
11098.96973 0.127157
11099.99023 0.127164
11101.00977 0.127167
11102.03027 0.12717
11103.04980 0.127172
11104.07031 0.127175
11105.08984 0.127178
11106.11035 0.127181
11107.12988 0.127185
11108.15039 0.127188
11109.16992 0.127192
11110.19043 0.127197
11111.20996 0.127211
11112.23047 0.127225
11113.25000 0.127239
11114.26953 0.127253
11115.29004 0.127264
11116.30957 0.127267
11117.33008 0.12727
11118.34961 0.127272
11119.37988 0.127275
11120.40039 0.127278
11121.41992 0.127282
11122.44043 0.127286
11123.45996 0.12729
11124.48047 0.127294
11125.50000 0.127302
11126.53027 0.127313
11127.54980 0.127324
11128.57031 0.127335
11129.58984 0.127347
11130.61035 0.127356
11131.62988 0.127363
11132.66016 0.12737
11133.67969 0.127377
11134.70020 0.127384
11135.71973 0.127382
11136.75000 0.127377
11137.76953 0.127371
11138.79004 0.127365
11139.82031 0.127359
11140.83984 0.127367
11141.86035 0.127377
11142.87988 0.127388
11143.91016 0.127398
11144.92969 0.127409
11145.95020 0.127417
11146.98047 0.127425
11148.00000 0.127433
11149.03027 0.12744
11150.04980 0.127448
11151.07031 0.127454
11152.09961 0.127459
11153.12012 0.127465
11154.15039 0.12747
11155.16992 0.127475
11156.19043 0.127473
11157.21973 0.12747
11158.24023 0.127468
11159.26953 0.127466
11160.29004 0.127468
11161.32031 0.12748
11162.33984 0.127493
11163.37012 0.127505
11164.38965 0.127517
11165.41992 0.127528
11166.44043 0.127539
11167.46973 0.12755
11168.49023 0.127561
11169.51953 0.127572
11170.54004 0.127573
11171.57031 0.127564
11172.59961 0.127555
11173.62012 0.127546
11174.65039 0.127537
11175.66992 0.127537
11176.70020 0.127544
11177.73047 0.127549
11178.75000 0.127555
11179.78027 0.127561
11180.80957 0.12757
11181.83008 0.12758
11182.86035 0.12759
11183.88965 0.1276
11184.91992 0.127609
11185.94043 0.127618
11186.96973 0.127626
11188.00000 0.127634
11189.01953 0.127643
11190.04980 0.12765
11191.08008 0.127639
11192.11035 0.127629
11193.12988 0.127619
11194.16016 0.127608
11195.19043 0.127602
11196.21973 0.127616
11197.25000 0.12763
11198.26953 0.127644
11199.29980 0.127659
11200.33008 0.127668
11201.36035 0.127668
11202.38965 0.127668
11203.41992 0.127667
11204.45020 0.127667
11205.46973 0.127665
11206.50000 0.127661
11207.53027 0.127657
11208.55957 0.127653
11209.58984 0.127649
11210.62012 0.127651
11211.65039 0.127658
11212.67969 0.127664
11213.70996 0.127671
11214.74023 0.127678
11215.76953 0.127673
11216.79980 0.127665
11217.83008 0.127657
11218.86035 0.127648
11219.88965 0.12764
11220.91992 0.127645
11221.95020 0.127652
11222.98047 0.127658
11224.00977 0.127665
11225.04004 0.127671
11226.07031 0.127671
11227.09961 0.127671
11228.12988 0.127671
11229.16992 0.12767
11230.20020 0.127671
11231.23047 0.127672
11232.25977 0.127674
11233.29004 0.127675
11234.32031 0.127677
11235.34961 0.127677
11236.38965 0.127675
11237.41992 0.127673
11238.45020 0.127671
11239.48047 0.127668
11240.50977 0.127665
11241.54980 0.127659
11242.58008 0.127653
11243.61035 0.127648
11244.63965 0.127642
11245.67969 0.127646
11246.70996 0.127655
11247.74023 0.127664
11248.76953 0.127673
11249.80957 0.127683
11250.83984 0.127681
11251.87012 0.127677
11252.91016 0.127674
11253.94043 0.12767
11254.96973 0.127666
11256.00977 0.127665
11257.04004 0.127665
11258.08008 0.127664
11259.11035 0.127664
11260.13965 0.127663
11261.17969 0.12766
11262.20996 0.127656
11263.25000 0.127653
11264.28027 0.12765
11265.30957 0.127648
11266.34961 0.127651
11267.37988 0.127653
11268.41992 0.127656
11269.45020 0.127658
11270.49023 0.127658
11271.51953 0.127656
11272.55957 0.127653
11273.58984 0.127651
11274.62988 0.127649
11275.66016 0.127644
11276.70020 0.127637
11277.73047 0.12763
11278.76953 0.127624
11279.79980 0.127617
11280.83984 0.127618
11281.87988 0.127621
11282.91016 0.127623
11283.95020 0.127626
11284.99023 0.127628
11286.01953 0.127625
11287.05957 0.127622
11288.08984 0.127618
11289.12988 0.127615
11290.16992 0.127612
11291.20020 0.12761
11292.24023 0.127609
11293.28027 0.127608
11294.32031 0.127606
11295.34961 0.127602
11296.38965 0.127592
11297.42969 0.127581
11298.45996 0.127571
11299.50000 0.127561
11300.54004 0.127557
11301.58008 0.127559
11302.62012 0.127561
11303.65039 0.127562
11304.69043 0.127564
11305.73047 0.127559
11306.76953 0.127551
11307.80957 0.127544
11308.83984 0.127536
11309.87988 0.127528
11310.91992 0.127521
11311.95996 0.127514
11313.00000 0.127507
11314.04004 0.127501
11315.08008 0.127495
11316.12012 0.127495
11317.16016 0.127495
11318.19043 0.127495
11319.23047 0.127496
11320.26953 0.127495
11321.30957 0.12749
11322.34961 0.127486
11323.38965 0.127481
11324.42969 0.127477
11325.46973 0.127474
11326.50977 0.127471
11327.54980 0.127469
11328.58984 0.127467
11329.62988 0.127464
11330.66992 0.127456
11331.70996 0.127445
11332.75000 0.127434
11333.79004 0.127423
11334.83008 0.127412
11335.87988 0.127415
11336.91992 0.12742
11337.95996 0.127426
11339.00000 0.127431
11340.04004 0.127436
11341.08008 0.127423
11342.12012 0.12741
11343.16992 0.127397
11344.20996 0.127385
11345.25000 0.127373
11346.29004 0.127364
11347.33008 0.127356
11348.37012 0.127347
11349.41992 0.127338
11350.45996 0.127327
11351.50000 0.127313
11352.54004 0.127299
11353.58984 0.127285
11354.62988 0.127271
11355.66992 0.127268
11356.70996 0.127272
11357.75977 0.127276
11358.79980 0.12728
11359.83984 0.127284
11360.88965 0.127279
11361.92969 0.127272
11362.96973 0.127265
11364.01953 0.127258
11365.05957 0.127252
11366.09961 0.127256
11367.15039 0.127261
11368.19043 0.127265
11369.23047 0.12727
11370.28027 0.127269
11371.32031 0.127256
11372.37012 0.127242
11373.41016 0.127229
11374.45996 0.127215
11375.50000 0.127208
11376.54004 0.127208
11377.58984 0.127208
11378.62988 0.127208
11379.67969 0.127208
11380.71973 0.127195
11381.76953 0.127176
11382.80957 0.127157
11383.86035 0.127138
11384.91016 0.127119
11385.95020 0.12712
11387.00000 0.127124
11388.04004 0.127128
11389.08984 0.127131
11390.12988 0.127133
11391.17969 0.127123
11392.23047 0.127114
11393.26953 0.127104
11394.32031 0.127094
11395.36035 0.127084
11396.41016 0.127074
11397.45996 0.127064
11398.50000 0.127054
11399.54980 0.127044
11400.59961 0.127038
11401.63965 0.127037
11402.69043 0.127035
11403.74023 0.127033
11404.79004 0.127032
11405.83008 0.127032
11406.87988 0.127033
11407.92969 0.127035
11408.98047 0.127036
11410.01953 0.127037
11411.07031 0.127038
11412.12012 0.127038
11413.16992 0.127039
11414.20996 0.12704
11415.25977 0.12704
11416.30957 0.127039
11417.36035 0.127038
11418.41016 0.127036
11419.45996 0.127035
11420.50977 0.127035
11421.54980 0.127035
11422.59961 0.127034
11423.65039 0.127034
11424.70020 0.127034
11425.75000 0.127035
11426.79980 0.127035
11427.84961 0.127036
11428.90039 0.127036
11429.95020 0.127037
11431.00000 0.127036
11432.04980 0.127036
11433.09961 0.127035
11434.15039 0.127035
11435.20020 0.127035
11436.25000 0.127037
11437.29980 0.127038
11438.34961 0.12704
11439.40039 0.127042
11440.45020 0.127041
11441.50000 0.127036
11442.54980 0.127032
11443.59961 0.127027
11444.65039 0.127022
11445.70020 0.127021
11446.75000 0.127021
11447.79980 0.127021
11448.86035 0.127022
11449.91016 0.127022
11450.95996 0.127025
11452.00977 0.127028
11453.05957 0.127031
11454.11035 0.127034
11455.16992 0.127037
11456.21973 0.127034
11457.26953 0.127031
11458.32031 0.127027
11459.37012 0.127024
11460.42969 0.127021
11461.48047 0.127018
11462.53027 0.127015
11463.58008 0.127012
11464.63965 0.127009
11465.69043 0.127007
11466.74023 0.127005
11467.79004 0.127003
11468.84961 0.127001
11469.90039 0.126999
11470.95020 0.127003
11472.00977 0.127009
11473.05957 0.127014
11474.11035 0.127019
11475.16992 0.127023
11476.21973 0.127023
11477.28027 0.127022
11478.33008 0.127021
11479.37988 0.127021
11480.44043 0.127022
11481.49023 0.127025
11482.54980 0.127028
11483.59961 0.127032
11484.66016 0.127035
11485.70996 0.12703
11486.76953 0.12702
11487.82031 0.12701
11488.87988 0.127
11489.92969 0.126991
11490.99023 0.127001
11492.04004 0.127012
11493.09961 0.127024
11494.15039 0.127035
11495.20996 0.127043
11496.25977 0.127036
11497.32031 0.127028
11498.37012 0.127021
11499.42969 0.127014
11500.49023 0.127006
11501.54004 0.126999
11502.59961 0.126991
11503.65039 0.126984
11504.70996 0.126976
11505.76953 0.126974
11506.82031 0.126973
11507.87988 0.126972
11508.94043 0.126971
11509.99023 0.126971
11511.04980 0.126956
11512.11035 0.126941
11513.16992 0.126926
11514.21973 0.126911
11515.28027 0.126897
11516.33984 0.126885
11517.38965 0.126872
11518.45020 0.12686
11519.50977 0.126847
11520.57031 0.126837
11521.62988 0.126828
11522.67969 0.12682
11523.74023 0.126811
11524.79980 0.126803
11525.86035 0.126794
11526.91992 0.126785
11527.98047 0.126776
11529.03027 0.126767
11530.08984 0.126757
11531.15039 0.126743
11532.20996 0.126728
11533.26953 0.126714
11534.33008 0.126699
11535.38965 0.12669
11536.45020 0.12669
11537.50977 0.126689
11538.57031 0.126688
11539.62988 0.126688
11540.69043 0.126678
11541.75000 0.126664
11542.79980 0.126649
11543.87012 0.126635
11544.91992 0.12662
11545.99023 0.126608
11547.04980 0.126596
11548.11035 0.126585
11549.16992 0.126573
11550.23047 0.126563
11551.29004 0.126557
11552.34961 0.126552
11553.41016 0.126546
11554.46973 0.126541
11555.53027 0.126537
11556.58984 0.126536
11557.65039 0.126535
11558.70996 0.126534
11559.78027 0.126533
11560.83984 0.126524
11561.90039 0.126513
11562.95996 0.126501
11564.01953 0.12649
11565.08008 0.126479
11566.15039 0.126473
11567.20996 0.126467
11568.26953 0.126461
11569.33008 0.126454
11570.40039 0.126444
11571.45996 0.126427
11572.51953 0.12641
11573.58008 0.126393
11574.65039 0.126376
11575.70996 0.126374
11576.76953 0.12638
11577.83984 0.126386
11578.90039 0.126391
11579.95996 0.126397
11581.03027 0.126383
11582.08984 0.126368
11583.15039 0.126354
11584.21973 0.126339
11585.28027 0.126327
11586.33984 0.126324
11587.41016 0.126321
11588.46973 0.126317
11589.54004 0.126314
11590.59961 0.126308
11591.66992 0.1263
11592.73047 0.126292
11593.79004 0.126284
11594.86035 0.126276
11595.91992 0.126267
11596.99023 0.126259
11598.04980 0.126251
11599.12012 0.126242
11600.17969 0.126233
11601.25000 0.126222
11602.30957 0.12621
11603.37988 0.126199
11604.45020 0.126187
11605.50977 0.126182
11606.58008 0.126184
11607.63965 0.126185
11608.70996 0.126187
11609.76953 0.126189
11610.83984 0.126182
11611.91016 0.126173
11612.96973 0.126164
11614.04004 0.126155
11615.11035 0.126148
11616.16992 0.126153
11617.24023 0.126158
11618.30957 0.126164
11619.37012 0.126169
11620.44043 0.126171
11621.50977 0.12617
11622.57031 0.126169
11623.63965 0.126168
11624.70996 0.126167
11625.78027 0.126162
11626.83984 0.126155
11627.91016 0.126148
11628.98047 0.126142
11630.04980 0.126135
11631.12012 0.126135
11632.17969 0.126135
11633.25000 0.126135
11634.32031 0.126135
11635.38965 0.126134
11636.45996 0.12613
11637.53027 0.126126
11638.58984 0.126123
11639.66016 0.126119
11640.73047 0.12611
11641.79980 0.1261
11642.87012 0.12609
11643.94043 0.12608
11645.00977 0.12607
11646.08008 0.126077
11647.15039 0.126084
11648.21973 0.126091
11649.29004 0.126098
11650.36035 0.126102
11651.42969 0.126097
11652.50000 0.126093
11653.57031 0.126089
11654.63965 0.126084
11655.70996 0.126079
11656.78027 0.126074
11657.84961 0.126068
11658.91992 0.126063
11659.99023 0.126057
11661.05957 0.126058
11662.12988 0.126059
11663.20020 0.126059
11664.26953 0.12606
11665.33984 0.126058
11666.41016 0.12605
11667.49023 0.126041
11668.55957 0.126033
11669.62988 0.126024
11670.70020 0.126016
11671.76953 0.126009
11672.83984 0.126002
11673.91992 0.125994
11674.99023 0.125987
11676.05957 0.125989
11677.12988 0.125992
11678.20020 0.125995
11679.28027 0.125998
11680.34961 0.125998
11681.41992 0.125992
11682.49023 0.125987
11683.57031 0.125981
11684.63965 0.125975
11685.70996 0.125972
11686.79004 0.125971
11687.86035 0.125969
11688.92969 0.125968
11690.00977 0.125966
11691.08008 0.125963
11692.15039 0.12596
11693.23047 0.125956
11694.29980 0.125953
11695.37012 0.125949
11696.45020 0.125944
11697.51953 0.125939
11698.59961 0.125934
11699.66992 0.125929
11700.75000 0.125918
11701.82031 0.125905
11702.88965 0.125891
11703.96973 0.125878
11705.04004 0.125865
11706.12012 0.125866
11707.19043 0.125868
11708.26953 0.125869
11709.33984 0.12587
11710.41992 0.12587
11711.49023 0.125867
11712.57031 0.125864
11713.65039 0.125861
11714.71973 0.125858
11715.79980 0.12585
11716.87012 0.12584
11717.95020 0.12583
11719.03027 0.12582
11720.09961 0.125811
11721.17969 0.125802
11722.25000 0.125793
11723.33008 0.125784
11724.41016 0.125775
11725.48047 0.125764
11726.55957 0.125749
11727.63965 0.125735
11728.70996 0.125721
11729.79004 0.125706
11730.87012 0.125702
11731.95020 0.125701
11733.01953 0.1257
11734.09961 0.125699
11735.17969 0.125696
11736.25000 0.125685
11737.33008 0.125673
11738.41016 0.125662
11739.49023 0.12565
11740.57031 0.125638
11741.65039 0.125627
11742.71973 0.125615
11743.79980 0.125603
11744.87988 0.125591
11745.95996 0.125596
11747.04004 0.125603
11748.12012 0.125609
11749.19043 0.125616
11750.26953 0.125618
11751.34961 0.125604
11752.42969 0.12559
11753.50977 0.125577
11754.58984 0.125563
11755.66992 0.125556
11756.75000 0.125553
11757.83008 0.12555
11758.91016 0.125546
11759.99023 0.125543
11761.07031 0.125537
11762.15039 0.12553
11763.23047 0.125523
11764.30957 0.125517
11765.38965 0.125508
11766.46973 0.125496
11767.54980 0.125484
11768.62988 0.125472
11769.70996 0.12546
11770.79004 0.125445
11771.87012 0.12543
11772.95020 0.125415
11774.04004 0.1254
11775.12012 0.125387
11776.20020 0.125391
11777.28027 0.125395
11778.36035 0.125399
11779.44043 0.125403
11780.51953 0.125398
11781.61035 0.125384
11782.69043 0.12537
11783.76953 0.125357
11784.84961 0.125343
11785.92969 0.125339
11787.01953 0.125337
11788.09961 0.125335
11789.17969 0.125333
11790.25977 0.12533
11791.34961 0.125326
11792.42969 0.125322
11793.50977 0.125317
11794.59961 0.125313
11795.67969 0.125305
11796.75977 0.125294
11797.83984 0.125283
11798.92969 0.125272
11800.00977 0.125262
11801.09961 0.12527
11802.17969 0.125279
11803.25977 0.125288
11804.34961 0.125296
11805.42969 0.125291
11806.50977 0.125264
11807.59961 0.125237
11808.67969 0.12521
11809.76953 0.125183
11810.84961 0.125179
11811.94043 0.125182
11813.01953 0.125185
11814.11035 0.125187
11815.19043 0.125188
11816.28027 0.12518
11817.36035 0.125171
11818.45020 0.125163
11819.53027 0.125155
11820.62012 0.125148
11821.70020 0.125143
11822.79004 0.125138
11823.87012 0.125133
11824.95996 0.125128
11826.04980 0.125121
11827.12988 0.125113
11828.21973 0.125106
11829.29980 0.125099
11830.38965 0.125091
11831.48047 0.125083
11832.55957 0.125076
11833.65039 0.125068
11834.74023 0.12506
11835.82031 0.125049
11836.91016 0.125036
11838.00000 0.125024
11839.08008 0.125011
11840.16992 0.125001
11841.25977 0.125
11842.34961 0.125
11843.42969 0.125
11844.51953 0.124999
11845.61035 0.124999
11846.70020 0.124999
11847.78027 0.124998
11848.87012 0.124998
11849.95996 0.124998
11851.04980 0.124987
11852.13965 0.124976
11853.23047 0.124965
11854.30957 0.124954
11855.40039 0.124946
11856.49023 0.12494
11857.58008 0.124935
11858.66992 0.12493
11859.75977 0.124925
11860.84961 0.12492
11861.94043 0.124915
11863.03027 0.12491
11864.11035 0.124906
11865.20020 0.124902
11866.29004 0.124905
11867.37988 0.124908
11868.46973 0.12491
11869.55957 0.124913
11870.65039 0.124912
11871.74023 0.124907
11872.83008 0.124903
11873.91992 0.124898
11875.00977 0.124894
11876.09961 0.124888
11877.20020 0.124883
11878.29004 0.124878
11879.37988 0.124872
11880.46973 0.12487
11881.55957 0.124872
11882.65039 0.124874
11883.74023 0.124877
11884.83008 0.124879
11885.91992 0.124884
11887.00977 0.12489
11888.11035 0.124896
11889.20020 0.124902
11890.29004 0.124904
11891.37988 0.124895
11892.46973 0.124886
11893.57031 0.124877
11894.66016 0.124869
11895.75000 0.124868
11896.83984 0.12487
11897.94043 0.124872
11899.03027 0.124875
11900.12012 0.124877
11901.20996 0.124875
11902.30957 0.124873
11903.40039 0.12487
11904.49023 0.124868
11905.58008 0.124868
11906.67969 0.124868
11907.76953 0.124868
11908.87012 0.124868
11909.95996 0.124869
11911.04980 0.124861
11912.15039 0.124853
11913.24023 0.124844
11914.33008 0.124836
11915.42969 0.124833
11916.51953 0.124837
11917.62012 0.124841
11918.70996 0.124845
11919.80957 0.124849
11920.90039 0.124851
11922.00000 0.124852
11923.08984 0.124852
11924.17969 0.124853
11925.28027 0.124854
11926.37988 0.124854
11927.46973 0.124853
11928.57031 0.124853
11929.66016 0.124853
11930.75977 0.124854
11931.84961 0.124857
11932.95020 0.12486
11934.04004 0.124863
11935.13965 0.124867
11936.24023 0.124883
11937.33008 0.1249
11938.42969 0.124916
11939.51953 0.124933
11940.62012 0.124933
11941.71973 0.124921
11942.80957 0.12491
11943.91016 0.124898
11945.00977 0.124886
11946.09961 0.12489
11947.20020 0.124893
11948.29980 0.124896
11949.40039 0.124899
11950.49023 0.124902
11951.58984 0.124903
11952.69043 0.124905
11953.79004 0.124907
11954.87988 0.124909
11955.98047 0.124921
11957.08008 0.124934
11958.17969 0.124948
11959.28027 0.124961
11960.37012 0.124971
11961.46973 0.124974
11962.57031 0.124978
11963.66992 0.124981
11964.76953 0.124984
11965.87012 0.124983
11966.95996 0.124981
11968.05957 0.124979
11969.16016 0.124977
11970.25977 0.124979
11971.36035 0.124994
11972.45996 0.125009
11973.55957 0.125025
11974.66016 0.12504
11975.75977 0.12504
11976.86035 0.125034
11977.95996 0.125028
11979.05957 0.125022
11980.16016 0.125018
11981.25977 0.125031
11982.36035 0.125044
11983.45996 0.125057
11984.55957 0.12507
11985.66016 0.125084
11986.75977 0.125098
11987.86035 0.125112
11988.95996 0.125126
11990.05957 0.12514
11991.16016 0.12515
11992.26953 0.12516
11993.37012 0.12517
11994.46973 0.125181
11995.57031 0.125192
11996.66992 0.125205
11997.76953 0.125218
11998.87988 0.125231
11999.98047 0.125244
12001.08008 0.12526
12002.17969 0.125277
12003.28027 0.125294
12004.37988 0.12531
12005.49023 0.125334
12006.58984 0.125367
12007.69043 0.125399
12008.79004 0.125432
12009.90039 0.125465
12011.00000 0.125489
12012.09961 0.125513
12013.20996 0.125536
12014.30957 0.12556
12015.41016 0.125583
12016.51953 0.125607
12017.62012 0.12563
12018.71973 0.125653
12019.83008 0.125676
12020.92969 0.125705
12022.04004 0.125735
12023.13965 0.125764
12024.24023 0.125794
12025.34961 0.125823
12026.45020 0.12585
12027.55957 0.125877
12028.66016 0.125904
12029.75977 0.125931
12030.87012 0.125955
12031.96973 0.125979
12033.08008 0.126003
12034.17969 0.126027
12035.29004 0.126054
12036.38965 0.126087
12037.50000 0.12612
12038.61035 0.126154
12039.70996 0.126187
12040.82031 0.126213
12041.91992 0.126237
12043.03027 0.12626
12044.12988 0.126283
12045.24023 0.126308
12046.34961 0.12634
12047.45020 0.126371
12048.55957 0.126403
12049.66992 0.126434
12050.76953 0.126468
12051.87988 0.126501
12052.98047 0.126535
12054.08984 0.126569
12055.20020 0.126599
12056.30957 0.126611
12057.41016 0.126622
12058.51953 0.126634
12059.62988 0.126646
12060.73047 0.126674
12061.83984 0.126711
12062.95020 0.126747
12064.05957 0.126783
12065.16992 0.12682
12066.26953 0.126852
12067.37988 0.126885
12068.49023 0.126917
12069.59961 0.12695
12070.70996 0.126984
12071.80957 0.127018
12072.91992 0.127053
12074.03027 0.127087
12075.13965 0.12712
12076.25000 0.12714
12077.36035 0.127161
12078.46973 0.127181
12079.58008 0.127202
12080.69043 0.127228
12081.79980 0.127258
12082.91016 0.127288
12084.00977 0.127318
12085.12012 0.127349
12086.23047 0.127387
12087.33984 0.127425
12088.45020 0.127463
12089.55957 0.1275
12090.66992 0.127534
12091.78027 0.127564
12092.88965 0.127595
12094.00000 0.127625
12095.12012 0.127655
12096.23047 0.127675
12097.33984 0.127696
12098.45020 0.127717
12099.55957 0.127738
12100.66992 0.12777
12101.78027 0.127811
12102.88965 0.127852
12104.00000 0.127892
12105.12012 0.127931
12106.23047 0.12796
12107.33984 0.127988
12108.45020 0.128016
12109.55957 0.128044
12110.66992 0.128073
12111.79004 0.128103
12112.90039 0.128133
12114.00977 0.128162
12115.12012 0.128192
12116.24023 0.12822
12117.34961 0.128248
12118.45996 0.128276
12119.58008 0.128305
12120.69043 0.128334
12121.79980 0.128364
12122.91016 0.128394
12124.03027 0.128424
12125.13965 0.128454
12126.25000 0.128484
12127.37012 0.128514
12128.48047 0.128544
12129.58984 0.128575
12130.70996 0.1286
12131.82031 0.128623
12132.94043 0.128646
12134.04980 0.128669
12135.16992 0.128694
12136.28027 0.128734
12137.38965 0.128774
12138.50977 0.128814
12139.62012 0.128853
12140.74023 0.128882
12141.84961 0.128904
12142.96973 0.128926
12144.08008 0.128949
12145.20020 0.128973
12146.30957 0.129006
12147.42969 0.129039
12148.54004 0.129072
12149.66016 0.129105
12150.78027 0.129134
12151.88965 0.129161
12153.00977 0.129187
12154.12012 0.129214
12155.24023 0.12924
12156.36035 0.129264
12157.46973 0.129288
12158.58984 0.129313
12159.70996 0.129337
12160.82031 0.129364
12161.94043 0.129392
12163.05957 0.12942
12164.16992 0.129448
12165.29004 0.129474
12166.41016 0.129494
12167.51953 0.129514
12168.63965 0.129533
12169.75977 0.129553
12170.87988 0.129581
12171.99023 0.129611
12173.11035 0.129642
12174.23047 0.129672
12175.34961 0.129699
12176.46973 0.129719
12177.58008 0.129739
12178.70020 0.129759
12179.82031 0.12978
12180.94043 0.129793
12182.05957 0.129805
12183.17969 0.129817
12184.29004 0.129828
12185.41016 0.129845
12186.53027 0.129868
12187.65039 0.129892
12188.76953 0.129915
12189.88965 0.129939
12191.00977 0.129959
12192.12988 0.129979
12193.25000 0.129999
12194.37012 0.130019
12195.49023 0.130036
12196.61035 0.13005
12197.73047 0.130065
12198.84961 0.130079
12199.96973 0.130094
12201.08984 0.130103
12202.20996 0.130113
12203.33008 0.130123
12204.45020 0.130133
12205.57031 0.130146
12206.69043 0.130163
12207.80957 0.13018
12208.92969 0.130197
12210.04980 0.130214
12211.17969 0.13022
12212.29980 0.130226
12213.41992 0.130233
12214.54004 0.130239
12215.66016 0.130245
12216.78027 0.130251
12217.91016 0.130257
12219.03027 0.130263
12220.15039 0.130269
12221.26953 0.130277
12222.38965 0.130284
12223.51953 0.130292
12224.63965 0.1303
12225.75977 0.130298
12226.87988 0.130292
12228.00977 0.130286
12229.12988 0.13028
12230.25000 0.130277
12231.37988 0.130287
12232.50000 0.130298
12233.62012 0.130308
12234.75000 0.130318
12235.87012 0.130326
12236.99023 0.130333
12238.12012 0.130341
12239.24023 0.130349
12240.37012 0.130352
12241.49023 0.130347
12242.61035 0.130342
12243.74023 0.130337
12244.86035 0.130333
12245.99023 0.130337
12247.11035 0.130343
12248.24023 0.130349
12249.36035 0.130355
12250.49023 0.130353
12251.61035 0.130342
12252.74023 0.13033
12253.86035 0.130318
12254.99023 0.130306
12256.11035 0.130312
12257.24023 0.130317
12258.36035 0.130323
12259.49023 0.130329
12260.61035 0.13033
12261.74023 0.130329
12262.87012 0.130327
12263.99023 0.130325
12265.12012 0.130321
12266.24023 0.130298
12267.37012 0.130274
12268.50000 0.13025
12269.62012 0.130226
12270.75000 0.130218
12271.87988 0.130217
12273.00000 0.130216
12274.12988 0.130215
12275.25977 0.130211
12276.38965 0.130195
12277.50977 0.13018
12278.63965 0.130164
12279.76953 0.130148
12280.90039 0.130134
12282.01953 0.130119
12283.15039 0.130106
12284.28027 0.130091
12285.41016 0.130077
12286.54004 0.130061
12287.66016 0.130045
12288.79004 0.130029
12289.91992 0.130013
12291.04980 0.129993
12292.17969 0.129972
12293.30957 0.129952
12294.44043 0.129931
12295.55957 0.12991
12296.69043 0.129887
12297.82031 0.129864
12298.95020 0.12984
12300.08008 0.129819
12301.20996 0.129813
12302.33984 0.129808
12303.46973 0.129803
12304.59961 0.129797
12305.73047 0.129788
12306.86035 0.129776
12307.99023 0.129765
12309.12012 0.129753
12310.25000 0.129741
12311.37988 0.129724
12312.50977 0.129708
12313.63965 0.129691
12314.76953 0.129675
12315.90039 0.129655
12317.04004 0.129634
12318.16992 0.129613
12319.29980 0.129593
12320.42969 0.129572
12321.55957 0.129551
12322.69043 0.12953
12323.82031 0.129509
12324.95996 0.129488
12326.08984 0.129468
12327.21973 0.129447
12328.34961 0.129426
12329.48047 0.129405
12330.62012 0.129383
12331.75000 0.129359
12332.87988 0.129336
12334.00977 0.129312
12335.13965 0.129288
12336.28027 0.12926
12337.41016 0.129232
12338.54004 0.129204
12339.67969 0.129176
12340.80957 0.129152
12341.94043 0.12913
12343.08008 0.129107
12344.20996 0.129085
12345.33984 0.129062
12346.48047 0.129036
12347.61035 0.12901
12348.74023 0.128984
12349.87988 0.128958
12351.00977 0.128923
12352.15039 0.128887
12353.28027 0.128852
12354.41992 0.128816
12355.54980 0.128786
12356.67969 0.128762
12357.82031 0.128739
12358.95020 0.128715
12360.08984 0.12869
12361.21973 0.128655
12362.36035 0.12862
12363.49023 0.128585
12364.62988 0.128549
12365.76953 0.128512
12366.90039 0.128474
12368.04004 0.128435
12369.16992 0.128397
12370.30957 0.12836
12371.44043 0.128328
12372.58008 0.128297
12373.71973 0.128265
12374.84961 0.128233
12375.99023 0.128199
12377.12988 0.128165
12378.25977 0.128131
12379.40039 0.128096
12380.54004 0.128061
12381.66992 0.128026
12382.80957 0.12799
12383.95020 0.127954
12385.08008 0.127917
12386.21973 0.12787
12387.36035 0.127822
12388.50000 0.127774
12389.62988 0.127726
12390.76953 0.127689
12391.91016 0.127657
12393.04980 0.127625
12394.19043 0.127592
12395.32031 0.127558
12396.45996 0.12752
12397.59961 0.127481
12398.74023 0.127442
12399.87988 0.127404
12401.01953 0.12736
12402.15039 0.127316
12403.29004 0.127272
12404.42969 0.127227
12405.57031 0.127184
12406.70996 0.12714
12407.84961 0.127097
12408.99023 0.127054
12410.12988 0.127011
12411.26953 0.12697
12412.41016 0.126928
12413.54980 0.126887
12414.69043 0.126845
12415.83008 0.126798
12416.96973 0.126748
12418.11035 0.126697
12419.25000 0.126647
12420.38965 0.126598
12421.53027 0.12655
12422.66992 0.126501
12423.80957 0.126453
12424.95020 0.126405
12426.08984 0.12636
12427.23047 0.126315
12428.37988 0.12627
12429.51953 0.126225
12430.66016 0.126181
12431.79980 0.126137
12432.94043 0.126092
12434.08008 0.126048
12435.21973 0.126003
12436.37012 0.125954
12437.50977 0.125905
12438.65039 0.125856
12439.79004 0.125807
12440.94043 0.125762
12442.08008 0.125718
12443.21973 0.125674
12444.36035 0.12563
12445.50977 0.125585
12446.65039 0.125538
12447.79004 0.12549
12448.94043 0.125443
12450.08008 0.125396
12451.21973 0.125347
12452.37012 0.125299
12453.50977 0.12525
12454.65039 0.125202
12455.79980 0.125148
12456.94043 0.125091
12458.08008 0.125034
12459.23047 0.124977
12460.37012 0.124926
12461.51953 0.124885
12462.66016 0.124844
12463.79980 0.124804
12464.95020 0.124763
12466.08984 0.124712
12467.24023 0.124661
12468.37988 0.12461
12469.53027 0.124559
12470.66992 0.124513
12471.82031 0.124471
12472.95996 0.124428
12474.11035 0.124385
12475.25000 0.124343
12476.40039 0.124303
12477.54980 0.124263
12478.69043 0.124224
12479.83984 0.124184
12480.98047 0.124133
12482.12988 0.124079
12483.28027 0.124026
12484.41992 0.123973
12485.57031 0.123921
12486.71973 0.123869
12487.86035 0.123817
12489.00977 0.123765
12490.16016 0.123715
12491.29980 0.123676
12492.45020 0.123638
12493.59961 0.123599
12494.74023 0.123561
12495.88965 0.123514
12497.04004 0.123466
12498.19043 0.123418
12499.33008 0.123369
12500.48047 0.12332
12501.62988 0.123268
12502.78027 0.123216
12503.92969 0.123165
12505.08008 0.123114
12506.21973 0.12307
12507.37012 0.123027
12508.51953 0.122983
12509.66992 0.12294
12510.82031 0.12289
12511.96973 0.122838
12513.12012 0.122786
12514.25977 0.122733
12515.41016 0.122684
12516.55957 0.122639
12517.70996 0.122594
12518.86035 0.122549
12520.00977 0.122504
12521.16016 0.122465
12522.30957 0.122426
12523.45996 0.122386
12524.61035 0.122347
12525.75977 0.122301
12526.91016 0.122253
12528.05957 0.122204
12529.20996 0.122155
12530.36035 0.12211
12531.50977 0.122074
12532.66016 0.122038
12533.82031 0.122003
12534.96973 0.121967
12536.12012 0.121925
12537.26953 0.121882
12538.41992 0.12184
12539.57031 0.121797
12540.71973 0.121754
12541.87012 0.121711
12543.03027 0.121667
12544.17969 0.121624
12545.33008 0.121581
12546.48047 0.121542
12547.62988 0.121503
12548.79004 0.121463
12549.94043 0.121424
12551.08984 0.121389
12552.24023 0.121354
12553.40039 0.121319
12554.54980 0.121285
12555.70020 0.121246
12556.84961 0.121206
12558.00977 0.121165
12559.16016 0.121124
12560.30957 0.121084
12561.46973 0.121044
12562.62012 0.121004
12563.78027 0.120964
12564.92969 0.120924
12566.08008 0.120894
12567.24023 0.120864
12568.38965 0.120834
12569.54004 0.120804
12570.70020 0.120771
12571.84961 0.120735
12573.00977 0.1207
12574.16016 0.120664
12575.32031 0.120628
12576.46973 0.12059
12577.62988 0.120552
12578.78027 0.120514
12579.94043 0.120475
12581.08984 0.120441
12582.25000 0.120408
12583.40039 0.120374
12584.55957 0.12034
12585.70996 0.120307
12586.87012 0.120274
12588.03027 0.120242
12589.17969 0.120209
12590.33984 0.120178
12591.49023 0.120148
12592.65039 0.120119
12593.80957 0.120089
12594.95996 0.120059
12596.12012 0.120031
12597.28027 0.120002
12598.42969 0.119974
12599.58984 0.119945
12600.75000 0.119921
12601.90039 0.119901
12603.05957 0.11988
12604.21973 0.119859
12605.37988 0.119836
12606.53027 0.119807
12607.69043 0.119778
12608.84961 0.11975
12610.00977 0.119721
12611.16992 0.119698
12612.32031 0.119675
12613.48047 0.119651
12614.63965 0.119628
12615.79980 0.119604
12616.95996 0.11958
12618.12012 0.119556
12619.26953 0.119531
12620.42969 0.119511
12621.58984 0.119495
12622.75000 0.11948
12623.91016 0.119465
12625.07031 0.11945
12626.23047 0.119429
12627.38965 0.119409
12628.54980 0.119389
12629.70996 0.119369
12630.87012 0.119354
12632.03027 0.11934
12633.19043 0.119327
12634.34961 0.119314
12635.50977 0.1193
12636.66992 0.119285
12637.83008 0.11927
12638.99023 0.119254
12640.15039 0.119239
12641.30957 0.11922
12642.46973 0.119202
12643.62988 0.119184
12644.79004 0.119165
12645.95020 0.119145
12647.12012 0.119123
12648.28027 0.119102
12649.44043 0.119081
12650.59961 0.119071
12651.75977 0.119071
12652.91992 0.119072
12654.08008 0.119073
12655.25000 0.11907
12656.41016 0.119054
12657.57031 0.119038
12658.73047 0.119022
12659.90039 0.119006
12661.05957 0.118997
12662.21973 0.118989
12663.37988 0.118981
12664.54980 0.118972
12665.70996 0.11897
12666.87012 0.118972
12668.04004 0.118974
12669.20020 0.118975
12670.36035 0.118972
12671.53027 0.11896
12672.69043 0.118947
12673.84961 0.118934
12675.01953 0.118921
12676.17969 0.11892
12677.34961 0.118918
12678.50977 0.118916
12679.66992 0.118915
12680.83984 0.118914
12682.00000 0.118914
12683.16992 0.118913
12684.33008 0.118913
12685.50000 0.118913
12686.66016 0.118914
12687.83008 0.118915
12688.99023 0.118916
12690.16016 0.118917
12691.32031 0.118917
12692.49023 0.118917
12693.65039 0.118917
12694.82031 0.118917
12695.99023 0.118924
12697.15039 0.118932
12698.32031 0.11894
12699.48047 0.118948
12700.65039 0.118948
12701.82031 0.11894
12702.98047 0.118932
12704.15039 0.118925
12705.32031 0.11892
12706.48047 0.118925
12707.65039 0.118929
12708.82031 0.118933
12709.98047 0.118938
12711.15039 0.118937
12712.32031 0.118936
12713.49023 0.118935
12714.65039 0.118934
12715.82031 0.11894
12716.99023 0.11895
12718.16016 0.118959
12719.32031 0.118969
12720.49023 0.118975
12721.66016 0.118978
12722.83008 0.118981
12724.00000 0.118984
12725.16016 0.118988
12726.33008 0.118994
12727.50000 0.119
12728.66992 0.119007
12729.83984 0.119013
12731.00977 0.119025
12732.17969 0.119038
12733.34961 0.11905
12734.51953 0.119063
12735.69043 0.119069
12736.84961 0.119068
12738.01953 0.119068
12739.19043 0.119068
12740.36035 0.119075
12741.53027 0.119096
12742.70020 0.119117
12743.87012 0.119138
12745.04004 0.119158
12746.20996 0.11916
12747.38965 0.119162
12748.55957 0.119164
12749.73047 0.119166
12750.90039 0.11918
12752.07031 0.119197
12753.24023 0.119215
12754.41016 0.119232
12755.58008 0.119247
12756.75000 0.11926
12757.91992 0.119273
12759.09961 0.119286
12760.26953 0.1193
12761.44043 0.11932
12762.61035 0.119339
12763.78027 0.119359
12764.95996 0.119378
12766.12988 0.119395
12767.29980 0.119411
12768.46973 0.119427
12769.65039 0.119443
12770.82031 0.11947
12771.99023 0.119502
12773.16016 0.119533
12774.33984 0.119565
12775.50977 0.119589
12776.67969 0.119603
12777.86035 0.119617
12779.03027 0.11963
12780.20020 0.119647
12781.37988 0.119675
12782.54980 0.119704
12783.71973 0.119732
12784.90039 0.11976
12786.07031 0.119779
12787.25000 0.119797
12788.41992 0.119815
12789.58984 0.119833
12790.76953 0.119856
12791.94043 0.119882
12793.12012 0.119909
12794.29004 0.119935
12795.46973 0.119966
12796.63965 0.120004
12797.82031 0.120042
12798.99023 0.12008
12800.16992 0.120116
12801.33984 0.120137
12802.51953 0.120159
12803.70020 0.12018
12804.87012 0.120202
12806.04980 0.120234
12807.21973 0.120268
12808.40039 0.120301
12809.58008 0.120335
12810.75000 0.120369
12811.92969 0.120402
12813.09961 0.120436
12814.28027 0.120469
12815.45996 0.120501
12816.62988 0.120531
12817.80957 0.120561
12818.99023 0.120591
12820.16992 0.120621
12821.33984 0.120659
12822.51953 0.120697
12823.70020 0.120735
12824.87988 0.120773
12826.04980 0.120816
12827.23047 0.120859
12828.41016 0.120902
12829.58984 0.120945
12830.76953 0.120983
12831.94043 0.12102
12833.12012 0.121057
12834.29980 0.121093
12835.48047 0.121127
12836.66016 0.121157
12837.83984 0.121186
12839.01953 0.121216
12840.19043 0.121248
12841.37012 0.12129
12842.54980 0.121332
12843.73047 0.121374
12844.91016 0.121416
12846.08984 0.121461
12847.26953 0.121507
12848.45020 0.121552
12849.62988 0.121597
12850.80957 0.121642
12851.99023 0.121688
12853.16992 0.121733
12854.34961 0.121778
12855.53027 0.121821
12856.70996 0.121862
12857.88965 0.121903
12859.07031 0.121944
12860.25000 0.121986
12861.44043 0.122029
12862.62012 0.122073
12863.79980 0.122116
12864.98047 0.12216
12866.16016 0.122205
12867.33984 0.12225
12868.51953 0.122295
12869.70996 0.12234
12870.88965 0.122375
12872.07031 0.122408
12873.25000 0.12244
12874.42969 0.122473
12875.62012 0.122519
12876.79980 0.122578
12877.98047 0.122637
12879.16016 0.122696
12880.34961 0.12275
12881.53027 0.122792
12882.70996 0.122834
12883.88965 0.122877
12885.08008 0.122919
12886.25977 0.122959
12887.44043 0.123
12888.62988 0.123041
12889.80957 0.123081
12890.99023 0.12313
12892.17969 0.123181
12893.36035 0.123231
12894.54980 0.123282
12895.73047 0.123332
12896.91016 0.123382
12898.09961 0.123432
12899.28027 0.123482
12900.46973 0.123526
12901.65039 0.12356
12902.83984 0.123594
12904.01953 0.123629
12905.20996 0.123664
12906.38965 0.123706
12907.58008 0.123747
12908.75977 0.123789
12909.95020 0.123831
12911.12988 0.123884
12912.32031 0.123937
12913.50000 0.123991
12914.69043 0.124044
12915.87988 0.124085
12917.05957 0.12412
12918.25000 0.124156
12919.44043 0.124192
12920.62012 0.124228
12921.80957 0.124264
12923.00000 0.1243
12924.17969 0.124337
12925.37012 0.124381
12926.55957 0.124441
12927.74023 0.124502
12928.92969 0.124563
12930.12012 0.124622
12931.29980 0.124669
12932.49023 0.124716
12933.67969 0.124762
12934.87012 0.124809
12936.04980 0.124852
12937.24023 0.124894
12938.42969 0.124937
12939.62012 0.124979
12940.80957 0.125026
12942.00000 0.125076
12943.17969 0.125126
12944.37012 0.125176
12945.55957 0.125219
12946.75000 0.125253
12947.94043 0.125288
12949.12988 0.125323
12950.32031 0.125361
12951.50977 0.125408
12952.70020 0.125454
12953.87988 0.125501
12955.07031 0.125547
12956.25977 0.125586
12957.45020 0.125626
12958.63965 0.125665
12959.83008 0.125704
12961.01953 0.125747
12962.20996 0.125791
12963.40039 0.125835
12964.58984 0.12588
12965.79004 0.125924
12966.98047 0.125968
12968.16992 0.126012
12969.36035 0.126056
12970.54980 0.126101
12971.74023 0.126148
12972.92969 0.126196
12974.12012 0.126243
12975.30957 0.126287
12976.50000 0.126324
12977.70020 0.126361
12978.88965 0.126397
12980.08008 0.126435
12981.26953 0.126481
12982.45996 0.126527
12983.66016 0.126573
12984.84961 0.126619
12986.04004 0.126661
12987.23047 0.126702
12988.42969 0.126743
12989.62012 0.126784
12990.80957 0.12683
12992.00000 0.12688
12993.20020 0.126929
12994.38965 0.126979
12995.58008 0.127026
12996.78027 0.12707
12997.96973 0.127114
12999.16992 0.127159
13000.36035 0.127208
13001.54980 0.127271
13002.75000 0.127333
13003.94043 0.127395
13005.12988 0.127458
13006.33008 0.127524
13007.51953 0.127591
13008.71973 0.127658
13009.91016 0.127724
13011.11035 0.127783
13012.29980 0.127841
13013.50000 0.1279
13014.69043 0.127958
13015.88965 0.128021
13017.08008 0.128086
13018.28027 0.128151
13019.46973 0.128216
13020.66992 0.128282
13021.86035 0.128347
13023.05957 0.128412
13024.25977 0.128477
13025.45020 0.128545
13026.65039 0.128615
13027.83984 0.128686
13029.04004 0.128757
13030.24023 0.128825
13031.42969 0.12888
13032.62988 0.128935
13033.83008 0.12899
13035.01953 0.129046
13036.21973 0.129104
13037.41992 0.129162
13038.62012 0.12922
13039.80957 0.129278
13041.00977 0.129342
13042.20996 0.129406
13043.41016 0.129471
13044.59961 0.129535
13045.79980 0.129593
13047.00000 0.129647
13048.20020 0.129702
13049.40039 0.129756
13050.58984 0.129813
13051.79004 0.129874
13052.99023 0.129934
13054.19043 0.129994
13055.38965 0.13005
13056.58984 0.130094
13057.79004 0.130139
13058.99023 0.130184
13060.17969 0.130232
13061.37988 0.130304
13062.58008 0.130375
13063.78027 0.130447
13064.98047 0.130518
13066.17969 0.130575
13067.37988 0.130632
13068.58008 0.130688
13069.78027 0.130745
13070.98047 0.130803
13072.17969 0.130861
13073.37988 0.13092
13074.58008 0.130978
13075.78027 0.131035
13076.99023 0.131092
13078.19043 0.131149
13079.38965 0.131206
13080.58984 0.131262
13081.79004 0.131317
13082.99023 0.131372
13084.19043 0.131427
13085.38965 0.131479
13086.58984 0.131525
13087.79980 0.131571
13089.00000 0.131618
13090.20020 0.131665
13091.40039 0.131716
13092.59961 0.131767
13093.80957 0.131817
13095.00977 0.131868
13096.20996 0.131918
13097.41992 0.131969
13098.62012 0.132019
13099.82031 0.13207
13101.01953 0.132114
13102.23047 0.132157
13103.42969 0.1322
13104.62988 0.132243
13105.83984 0.132281
13107.04004 0.132317
13108.24023 0.132353
13109.45020 0.132389
13110.65039 0.132428
13111.84961 0.132468
13113.05957 0.132508
13114.25977 0.132549
13115.46973 0.132592
13116.66992 0.132641
13117.87988 0.13269
13119.08008 0.132738
13120.29004 0.132785
13121.49023 0.132826
13122.70020 0.132866
13123.90039 0.132907
13125.11035 0.132947
13126.30957 0.132979
13127.51953 0.133012
13128.71973 0.133044
13129.92969 0.133076
13131.12988 0.133113
13132.33984 0.133151
13133.54004 0.133189
13134.75000 0.133226
13135.95996 0.133265
13137.16016 0.133304
13138.37012 0.133343
13139.58008 0.133381
13140.78027 0.133415
13141.99023 0.133447
13143.20020 0.133478
13144.40039 0.13351
13145.61035 0.133541
13146.82031 0.133572
13148.01953 0.133603
13149.23047 0.133635
13150.44043 0.133667
13151.65039 0.133701
13152.86035 0.133736
13154.05957 0.13377
13155.26953 0.133804
13156.48047 0.133835
13157.69043 0.133866
13158.90039 0.133898
13160.09961 0.133929
13161.30957 0.133962
13162.51953 0.133995
13163.73047 0.134028
13164.94043 0.134061
13166.15039 0.134083
13167.36035 0.134104
13168.57031 0.134125
13169.76953 0.134146
13170.98047 0.13418
13172.19043 0.134217
13173.40039 0.134255
13174.61035 0.134292
13175.82031 0.134323
13177.03027 0.134352
13178.24023 0.13438
13179.45020 0.134409
13180.66016 0.134434
13181.87012 0.134456
13183.08008 0.134479
13184.29004 0.134501
13185.50977 0.134527
13186.71973 0.134558
13187.92969 0.134588
13189.13965 0.134619
13190.34961 0.134647
13191.55957 0.134666
13192.76953 0.134686
13193.98047 0.134706
13195.20020 0.134727
13196.41016 0.134758
13197.62012 0.134788
13198.83008 0.134818
13200.04004 0.134848
13201.25000 0.134869
13202.46973 0.134889
13203.67969 0.134909
13204.88965 0.134929
13206.09961 0.134969
13207.32031 0.13501
13208.53027 0.135052
13209.74023 0.135093
13210.95996 0.13512
13212.16992 0.135142
13213.37988 0.135165
13214.59961 0.135188
13215.80957 0.135225
13217.01953 0.135269
13218.24023 0.135314
13219.45020 0.135358
13220.66992 0.135393
13221.87988 0.13542
13223.08984 0.135448
13224.30957 0.135475
13225.51953 0.1355
13226.74023 0.135522
13227.95020 0.135544
13229.16992 0.135566
13230.37988 0.135589
13231.58984 0.135617
13232.80957 0.135646
13234.03027 0.135674
13235.24023 0.135703
13236.45996 0.135738
13237.66992 0.135772
13238.88965 0.135807
13240.09961 0.13584
13241.32031 0.135866
13242.53027 0.135891
13243.75000 0.135916
13244.96973 0.135942
13246.17969 0.135967
13247.40039 0.135993
13248.62012 0.136019
13249.83008 0.136045
13251.04980 0.136069
13252.26953 0.136092
13253.48047 0.136116
13254.70020 0.136139
13255.91992 0.13616
13257.12988 0.13618
13258.34961 0.136199
13259.57031 0.136219
13260.79004 0.136243
13262.00000 0.13627
13263.21973 0.136296
13264.44043 0.136323
13265.66016 0.136345
13266.87988 0.136362
13268.09961 0.13638
13269.30957 0.136397
13270.53027 0.136421
13271.75000 0.136454
13272.96973 0.136487
13274.19043 0.136519
13275.41016 0.136548
13276.62988 0.136571
13277.84961 0.136593
13279.07031 0.136615
13280.28027 0.136635
13281.50000 0.136648
13282.71973 0.13666
13283.94043 0.136673
13285.16016 0.136687
13286.37988 0.136715
13287.59961 0.136744
13288.82031 0.136772
13290.04004 0.1368
13291.25977 0.136824
13292.49023 0.136848
13293.70996 0.136873
13294.92969 0.136897
13296.15039 0.136911
13297.37012 0.136925
13298.58984 0.136938
13299.80957 0.136952
13301.03027 0.136978
13302.25000 0.137006
13303.46973 0.137034
13304.70020 0.137062
13305.91992 0.137071
13307.13965 0.137074
13308.36035 0.137077
13309.58008 0.13708
13310.80957 0.137097
13312.03027 0.137122
13313.25000 0.137147
13314.46973 0.137171
13315.70020 0.137187
13316.91992 0.137196
13318.13965 0.137205
13319.37012 0.137214
13320.58984 0.137228
13321.80957 0.137246
13323.04004 0.137265
13324.25977 0.137283
13325.48047 0.137301
13326.70996 0.137317
13327.92969 0.137334
13329.15039 0.137351
13330.37988 0.137365
13331.59961 0.137373
13332.83008 0.137381
13334.04980 0.137389
13335.26953 0.137397
13336.50000 0.137407
13337.71973 0.137418
13338.95020 0.137428
13340.16992 0.137439
13341.40039 0.137457
13342.62012 0.137475
13343.84961 0.137493
13345.07031 0.137511
13346.29980 0.137524
13347.53027 0.137536
13348.75000 0.137549
13349.98047 0.137562
13351.20020 0.137573
13352.42969 0.137584
13353.66016 0.137595
13354.87988 0.137606
13356.11035 0.13763
13357.33008 0.137655
13358.55957 0.13768
13359.79004 0.137705
13361.00977 0.137717
13362.24023 0.137727
13363.46973 0.137737
13364.70020 0.137747
13365.91992 0.137764
13367.15039 0.137783
13368.37988 0.137802
13369.61035 0.137821
13370.83008 0.137832
13372.05957 0.137839
13373.29004 0.137846
13374.51953 0.137853
13375.75000 0.137859
13376.96973 0.137864
13378.20020 0.137868
13379.42969 0.137873
13380.66016 0.137882
13381.88965 0.137895
13383.12012 0.137908
13384.34961 0.137921
13385.57031 0.137936
13386.79980 0.137952
13388.03027 0.137969
13389.25977 0.137986
13390.49023 0.138003
13391.71973 0.13802
13392.95020 0.138039
13394.17969 0.138056
13395.41016 0.138071
13396.63965 0.138078
13397.87012 0.138084
13399.09961 0.138091
13400.33008 0.1381
13401.55957 0.138116
13402.79004 0.138131
13404.01953 0.138146
13405.25977 0.13816
13406.49023 0.138171
13407.71973 0.138182
13408.95020 0.138194
13410.17969 0.138206
13411.41016 0.138227
13412.63965 0.138248
13413.87988 0.138268
13415.11035 0.138289
13416.33984 0.138305
13417.57031 0.138322
13418.79980 0.138339
13420.04004 0.138356
13421.26953 0.138363
13422.50000 0.138371
13423.73047 0.138378
13424.95996 0.138386
13426.20020 0.138411
13427.42969 0.138437
13428.66016 0.138463
13429.90039 0.13849
13431.12988 0.138508
13432.36035 0.138525
13433.59961 0.138542
13434.83008 0.13856
13436.05957 0.138575
13437.29980 0.138591
13438.53027 0.138606
13439.76953 0.138622
13441.00000 0.138644
13442.24023 0.138667
13443.46973 0.138691
13444.70020 0.138715
13445.94043 0.138731
13447.16992 0.138744
13448.41016 0.138757
13449.63965 0.13877
13450.87988 0.138788
13452.11035 0.138808
13453.34961 0.138828
13454.58008 0.138848
13455.82031 0.13887
13457.05957 0.138893
13458.29004 0.138915
13459.53027 0.138938
13460.75977 0.138959
13462.00000 0.13898
13463.24023 0.139
13464.46973 0.13902
13465.70996 0.139039
13466.94043 0.139059
13468.17969 0.139079
13469.41992 0.139098
13470.66016 0.139115
13471.88965 0.139129
13473.12988 0.139144
13474.37012 0.139158
13475.59961 0.139175
13476.83984 0.139195
13478.08008 0.139215
13479.32031 0.139235
13480.54980 0.139254
13481.79004 0.13927
13483.03027 0.139286
13484.26953 0.139302
13485.50977 0.13932
13486.75000 0.139341
13487.98047 0.139362
13489.21973 0.139383
13490.45996 0.139406
13491.70020 0.139432
13492.94043 0.139458
13494.17969 0.139484
13495.41992 0.139505
13496.66016 0.139518
13497.90039 0.139531
13499.12988 0.139544
13500.37988 0.139558
13501.61035 0.139574
13502.84961 0.139591
13504.08984 0.139608
13505.33008 0.139625
13506.57031 0.139646
13507.80957 0.139666
13509.04980 0.139686
13510.29980 0.139705
13511.54004 0.139721
13512.78027 0.139738
13514.01953 0.139754
13515.25977 0.139773
13516.50000 0.1398
13517.74023 0.139827
13518.98047 0.139854
13520.21973 0.139878
13521.46973 0.139885
13522.70996 0.139892
13523.95020 0.1399
13525.19043 0.139909
13526.42969 0.139934
13527.66992 0.139959
13528.91992 0.139984
13530.16016 0.140007
13531.40039 0.140019
13532.63965 0.140032
13533.88965 0.140044
13535.12988 0.140058
13536.37012 0.140083
13537.62012 0.140108
13538.86035 0.140133
13540.09961 0.140158
13541.34961 0.140169
13542.58984 0.14018
13543.83008 0.140191
13545.08008 0.140202
13546.32031 0.140215
13547.55957 0.140229
13548.80957 0.140242
13550.04980 0.140256
13551.29980 0.140274
13552.54004 0.140292
13553.79004 0.14031
13555.03027 0.140327
13556.28027 0.140349
13557.51953 0.140371
13558.76953 0.140393
13560.00977 0.140414
13561.25977 0.140429
13562.50000 0.140443
13563.75000 0.140458
13564.99023 0.140473
13566.24023 0.140493
13567.48047 0.140514
13568.73047 0.140534
13569.98047 0.140554
13571.21973 0.140564
13572.46973 0.140574
13573.70996 0.140584
13574.95996 0.140594
13576.20996 0.14062
13577.45020 0.140647
13578.70020 0.140675
13579.95020 0.140702
13581.20020 0.140724
13582.44043 0.140745
13583.69043 0.140766
13584.94043 0.140788
13586.17969 0.140812
13587.42969 0.140836
13588.67969 0.14086
13589.92969 0.140885
13591.17969 0.140904
13592.41992 0.140923
13593.66992 0.140941
13594.91992 0.14096
13596.16992 0.140984
13597.41992 0.141008
13598.66992 0.141032
13599.91016 0.141056
13601.16016 0.141064
13602.41016 0.141072
13603.66016 0.141079
13604.91016 0.141086
13606.16016 0.141099
13607.41016 0.141113
13608.66016 0.141127
13609.91016 0.141141
13611.16016 0.141158
13612.41016 0.141177
13613.66016 0.141195
13614.91016 0.141213
13616.16016 0.141208
13617.41016 0.141201
13618.66016 0.141193
13619.91016 0.141186
13621.16016 0.141215
13622.41016 0.141247
13623.66016 0.141279
13624.91016 0.14131
13626.16992 0.141333
13627.41992 0.141356
13628.66992 0.141378
13629.91992 0.141401
13631.16992 0.14142
13632.41992 0.141439
13633.66992 0.141458
13634.92969 0.141477
13636.17969 0.141482
13637.42969 0.141486
13638.67969 0.14149
13639.94043 0.141495
13641.19043 0.141506
13642.44043 0.141518
13643.69043 0.14153
13644.95020 0.141542
13646.20020 0.141557
13647.45020 0.141573
13648.70996 0.141589
13649.95996 0.141605
13651.20996 0.141619
13652.46973 0.141633
13653.71973 0.141647
13654.96973 0.14166
13656.23047 0.141674
13657.48047 0.141687
13658.74023 0.141701
13659.99023 0.141714
13661.25000 0.141725
13662.50000 0.141735
13663.75000 0.141746
13665.00977 0.141757
13666.25977 0.141783
13667.51953 0.14181
13668.76953 0.141836
13670.03027 0.141862
13671.28027 0.141863
13672.54004 0.141863
13673.79004 0.141863
13675.04980 0.141864
13676.30957 0.141878
13677.55957 0.141893
13678.82031 0.141907
13680.07031 0.14192
13681.33008 0.14192
13682.58984 0.14192
13683.83984 0.141921
13685.09961 0.141921
13686.36035 0.141921
13687.61035 0.14192
13688.87012 0.14192
13690.12988 0.141921
13691.37988 0.141933
13692.63965 0.141946
13693.90039 0.141958
13695.16016 0.14197
13696.41992 0.141972
13697.66992 0.141975
13698.92969 0.141978
13700.19043 0.141978
13701.45020 0.14197
13702.70996 0.141961
13703.95996 0.141953
13705.21973 0.141945
13706.48047 0.141944
13707.74023 0.141943
13709.00000 0.141942
13710.25977 0.14194
13711.51953 0.141937
13712.76953 0.141934
13714.03027 0.141931
13715.29004 0.141927
13716.54980 0.141924
13717.80957 0.14192
13719.07031 0.141917
13720.33008 0.141908
13721.58984 0.141886
13722.84961 0.141864
13724.11035 0.141842
13725.37012 0.141821
13726.62988 0.141802
13727.88965 0.141783
13729.15039 0.141763
13730.41016 0.14175
13731.67969 0.141748
13732.94043 0.141746
13734.20020 0.141744
13735.45996 0.141741
13736.71973 0.141736
13737.98047 0.14173
13739.24023 0.141725
13740.50000 0.141713
13741.76953 0.141691
13743.03027 0.141669
13744.29004 0.141647
13745.54980 0.141628
13746.80957 0.141611
13748.08008 0.141595
13749.33984 0.141578
13750.59961 0.141556
13751.87012 0.141527
13753.12988 0.141498
13754.38965 0.14147
13755.65039 0.141454
13756.91992 0.141449
13758.17969 0.141444
13759.44043 0.141439
13760.70996 0.141427
13761.96973 0.141407
13763.23047 0.141388
13764.50000 0.141368
13765.75977 0.141347
13767.03027 0.141325
13768.29004 0.141302
13769.55957 0.14128
13770.82031 0.141269
13772.08008 0.141265
13773.34961 0.141261
13774.61035 0.141257
13775.87988 0.141254
13777.13965 0.141252
13778.41016 0.141249
13779.66992 0.141246
13780.94043 0.141232
13782.20996 0.141214
13783.46973 0.141195
13784.74023 0.141177
13786.00000 0.141169
13787.26953 0.141164
13788.53027 0.141159
13789.79980 0.141154
13791.07031 0.141164
13792.33008 0.141176
13793.59961 0.141189
13794.87012 0.141201
13796.12988 0.1412
13797.40039 0.141197
13798.66992 0.141195
13799.92969 0.141192
13801.20020 0.141181
13802.46973 0.141169
13803.74023 0.141157
13805.00000 0.141145
13806.26953 0.141153
13807.54004 0.141161
13808.80957 0.14117
13810.08008 0.141177
13811.33984 0.141177
13812.61035 0.141177
13813.87988 0.141177
13815.15039 0.141176
13816.41992 0.141173
13817.69043 0.14117
13818.95996 0.141166
13820.21973 0.141165
13821.49023 0.141171
13822.75977 0.141177
13824.03027 0.141183
13825.29980 0.14119
13826.57031 0.1412
13827.83984 0.141209
13829.11035 0.141219
13830.37988 0.141231
13831.65039 0.14125
13832.91992 0.141269
13834.19043 0.141288
13835.45996 0.141311
13836.73047 0.141341
13838.00000 0.14137
13839.26953 0.1414
13840.54004 0.141424
13841.82031 0.141441
13843.08984 0.141458
13844.36035 0.141475
13845.62988 0.141491
13846.90039 0.141507
13848.16992 0.141522
13849.44043 0.141538
13850.70996 0.141565
13851.99023 0.141603
13853.25977 0.14164
13854.53027 0.141677
13855.79980 0.141702
13857.08008 0.141719
13858.34961 0.141736
13859.62012 0.141753
13860.88965 0.141776
13862.16992 0.141801
13863.44043 0.141827
13864.70996 0.141852
13865.99023 0.141893
13867.25977 0.141939
13868.53027 0.141984
13869.80957 0.14203
13871.08008 0.142062
13872.34961 0.142091
13873.62988 0.142121
13874.90039 0.14215
13876.17969 0.142177
13877.45020 0.142204
13878.71973 0.142231
13880.00000 0.142258
13881.26953 0.142284
13882.54980 0.142309
13883.82031 0.142335
13885.09961 0.142362
13886.37012 0.142403
13887.65039 0.142444
13888.91992 0.142485
13890.20020 0.142526
13891.46973 0.142562
13892.75000 0.142598
13894.03027 0.142634
13895.29980 0.14267
13896.58008 0.142708
13897.84961 0.142745
13899.12988 0.142783
13900.41016 0.14282
13901.67969 0.142856
13902.95996 0.142892
13904.24023 0.142928
13905.50977 0.142972
13906.79004 0.143026
13908.07031 0.14308
13909.33984 0.143135
13910.62012 0.14318
13911.90039 0.143215
13913.17969 0.14325
13914.45020 0.143286
13915.73047 0.143328
13917.00977 0.143376
13918.29004 0.143424
13919.57031 0.143472
13920.83984 0.143518
13922.12012 0.143564
13923.40039 0.14361
13924.67969 0.143655
13925.95996 0.143691
13927.24023 0.143722
13928.51953 0.143754
13929.79004 0.143785
13931.07031 0.143829
13932.34961 0.143874
13933.62988 0.14392
13934.91016 0.143965
13936.19043 0.144015
13937.46973 0.144065
13938.75000 0.144115
13940.03027 0.144165
13941.30957 0.144203
13942.58984 0.14424
13943.87012 0.144278
13945.15039 0.144316
13946.42969 0.14436
13947.70996 0.144404
13949.00000 0.144448
13950.28027 0.144493
13951.55957 0.144541
13952.83984 0.14459
13954.12012 0.144638
13955.40039 0.144685
13956.67969 0.144728
13957.95996 0.14477
13959.25000 0.144813
13960.53027 0.144854
13961.80957 0.144891
13963.08984 0.144929
13964.37012 0.144967
13965.66016 0.145007
13966.94043 0.14505
13968.21973 0.145093
13969.50000 0.145135
13970.79004 0.145187
13972.07031 0.145245
13973.34961 0.145303
13974.63965 0.14536
13975.91992 0.145406
13977.20020 0.145448
13978.49023 0.14549
13979.76953 0.145532
13981.04980 0.145578
13982.33984 0.145625
13983.62012 0.145673
13984.91016 0.14572
13986.19043 0.145761
13987.46973 0.145801
13988.75977 0.145841
13990.04004 0.145882
13991.33008 0.145922
13992.61035 0.145962
13993.90039 0.146003
13995.17969 0.146043
13996.46973 0.146083
13997.75000 0.146123
13999.04004 0.146162
14000.32031 0.146203
14001.61035 0.146247
14002.90039 0.14629
14004.17969 0.146334
14005.46973 0.146377
14006.75000 0.146422
14008.04004 0.146466
14009.33008 0.14651
14010.61035 0.146546
14011.90039 0.146575
14013.19043 0.146603
14014.46973 0.146632
14015.75977 0.146669
14017.04980 0.146712
14018.33008 0.146755
14019.62012 0.146797
14020.91016 0.146843
14022.20020 0.14689
14023.48047 0.146937
14024.76953 0.146984
14026.05957 0.147033
14027.34961 0.147082
14028.63965 0.147131
14029.91992 0.147181
14031.20996 0.147198
14032.50000 0.147214
14033.79004 0.14723
14035.08008 0.147248
14036.37012 0.147296
14037.66016 0.147344
14038.95020 0.147392
14040.23047 0.147439
14041.51953 0.147483
14042.80957 0.147528
14044.09961 0.147572
14045.38965 0.147612
14046.67969 0.147641
14047.96973 0.147669
14049.25977 0.147698
14050.54980 0.14773
14051.83984 0.147764
14053.12988 0.147798
14054.41992 0.147832
14055.70996 0.147876
14057.00000 0.147928
14058.29980 0.14798
14059.58984 0.148033
14060.87988 0.148073
14062.16992 0.148109
14063.45996 0.148144
14064.75000 0.14818
14066.04004 0.148216
14067.33008 0.148253
14068.62988 0.148289
14069.91992 0.148326
14071.20996 0.148356
14072.50000 0.148386
14073.79980 0.148416
14075.08984 0.148447
14076.37988 0.148488
14077.66992 0.148528
14078.96973 0.148569
14080.25977 0.148608
14081.54980 0.14864
14082.83984 0.148672
14084.13965 0.148704
14085.42969 0.14874
14086.71973 0.148785
14088.01953 0.14883
14089.30957 0.148874
14090.61035 0.14891
14091.90039 0.148935
14093.19043 0.148959
14094.49023 0.148984
14095.78027 0.149021
14097.08008 0.149066
14098.37012 0.149112
14099.66992 0.149157
14100.95996 0.149189
14102.25977 0.149216
14103.54980 0.149243
14104.84961 0.149269
14106.13965 0.149308
14107.44043 0.149348
14108.73047 0.149388
14110.03027 0.149427
14111.32031 0.149455
14112.62012 0.149483
14113.91992 0.149511
14115.20996 0.149541
14116.50977 0.149578
14117.79980 0.149616
14119.09961 0.149653
14120.40039 0.149691
14121.69043 0.14973
14122.99023 0.14977
14124.29004 0.149809
14125.58008 0.149845
14126.87988 0.149877
14128.17969 0.149909
14129.48047 0.149941
14130.76953 0.149977
14132.07031 0.150016
14133.37012 0.150055
14134.66992 0.150093
14135.95996 0.150115
14137.25977 0.15013
14138.55957 0.150145
14139.86035 0.15016
14141.16016 0.150201
14142.45996 0.150246
14143.75000 0.15029
14145.04980 0.150334
14146.34961 0.150377
14147.65039 0.15042
14148.95020 0.150463
14150.25000 0.150501
14151.54980 0.150522
14152.84961 0.150542
14154.15039 0.150562
14155.45020 0.150589
14156.75000 0.150629
14158.04980 0.150669
14159.34961 0.150709
14160.65039 0.150747
14161.95020 0.150783
14163.25000 0.150819
14164.54980 0.150856
14165.84961 0.150891
14167.15039 0.150925
14168.45020 0.150959
14169.75000 0.150993
14171.05957 0.151034
14172.36035 0.151076
14173.66016 0.151118
14174.95996 0.15116
14176.25977 0.151178
14177.55957 0.151195
14178.87012 0.151211
14180.16992 0.151231
14181.46973 0.151265
14182.76953 0.1513
14184.07031 0.151335
14185.37988 0.151367
14186.67969 0.151395
14187.98047 0.151422
14189.29004 0.15145
14190.58984 0.151485
14191.88965 0.15153
14193.19043 0.151575
14194.50000 0.151619
14195.79980 0.151652
14197.09961 0.151678
14198.41016 0.151703
14199.70996 0.151729
14201.01953 0.151771
14202.32031 0.151818
14203.62988 0.151866
14204.92969 0.151913
14206.23047 0.151944
14207.54004 0.151974
14208.83984 0.152004
14210.15039 0.152035
14211.45020 0.152072
14212.75977 0.15211
14214.05957 0.152147
14215.37012 0.152186
14216.66992 0.152228
14217.98047 0.15227
14219.28027 0.152312
14220.58984 0.152348
14221.90039 0.152375
14223.20020 0.152403
14224.50977 0.15243
14225.80957 0.152463
14227.12012 0.152498
14228.42969 0.152533
14229.73047 0.152568
14231.04004 0.152604
14232.34961 0.152639
14233.65039 0.152675
14234.95996 0.15271
14236.26953 0.152744
14237.58008 0.152778
14238.87988 0.152811
14240.19043 0.152845
14241.50000 0.152875
14242.80957 0.152905
14244.11035 0.152935
14245.41992 0.15297
14246.73047 0.153013
14248.04004 0.153057
14249.34961 0.1531
14250.66016 0.153132
14251.95996 0.153153
14253.26953 0.153174
14254.58008 0.153196
14255.88965 0.153231
14257.20020 0.153274
14258.50977 0.153316
14259.82031 0.153359
14261.12988 0.153389
14262.44043 0.153417
14263.75000 0.153445
14265.05957 0.153473
14266.37012 0.153507
14267.67969 0.153542
14268.99023 0.153577
14270.29980 0.153612
14271.61035 0.153648
14272.91992 0.153683
14274.23047 0.153719
14275.54004 0.153754
14276.84961 0.153788
14278.16016 0.153823
14279.46973 0.153857
14280.79004 0.153885
14282.09961 0.153907
14283.41016 0.15393
14284.71973 0.153953
14286.03027 0.15399
14287.33984 0.154031
14288.66016 0.154073
14289.96973 0.154114
14291.28027 0.154156
14292.58984 0.154199
14293.90039 0.154241
14295.21973 0.154283
14296.53027 0.154319
14297.83984 0.154357
14299.16016 0.154393
14300.46973 0.154423
14301.78027 0.15444
14303.09961 0.154457
14304.41016 0.154474
14305.71973 0.154496
14307.04004 0.154524
14308.34961 0.154551
14309.66016 0.154578
14310.98047 0.154614
14312.29004 0.154651
14313.61035 0.154689
14314.91992 0.154727
14316.24023 0.15476
14317.54980 0.154793
14318.87012 0.154826
14320.17969 0.154856
14321.50000 0.154867
14322.80957 0.154878
14324.12012 0.154888
14325.44043 0.154906
14326.75977 0.154937
14328.07031 0.154968
14329.38965 0.154999
14330.70020 0.155034
14332.01953 0.155072
14333.33008 0.15511
14334.65039 0.155148
14335.96973 0.155174
14337.28027 0.155197
14338.59961 0.155219
14339.91992 0.155241
14341.23047 0.155264
14342.54980 0.155286
14343.87012 0.155308
14345.19043 0.155332
14346.50000 0.155359
14347.82031 0.155387
14349.13965 0.155414
14350.45996 0.155442
14351.76953 0.155472
14353.08984 0.155502
14354.41016 0.155532
14355.73047 0.155561
14357.04980 0.155588
14358.36035 0.155615
14359.67969 0.155642
14361.00000 0.155663
14362.32031 0.155682
14363.63965 0.1557
14364.95996 0.155718
14366.28027 0.155748
14367.59961 0.155778
14368.91992 0.155809
14370.24023 0.155838
14371.55957 0.155864
14372.87012 0.15589
14374.20020 0.155916
14375.50977 0.155941
14376.83008 0.155963
14378.16016 0.155985
14379.48047 0.156008
14380.79980 0.156031
14382.12012 0.156055
14383.44043 0.156079
14384.75977 0.156103
14386.08008 0.156121
14387.40039 0.156138
14388.71973 0.156155
14390.04004 0.156172
14391.36035 0.156193
14392.69043 0.156213
14394.00977 0.156233
14395.33008 0.156255
14396.65039 0.15628
14397.96973 0.156305
14399.29004 0.156329
14400.62012 0.156359
14401.94043 0.156394
14403.25977 0.156428
14404.58008 0.156463
14405.91016 0.156485
14407.23047 0.1565
14408.54980 0.156516
14409.87988 0.156532
14411.20020 0.156555
14412.51953 0.15658
14413.84961 0.156604
14415.16992 0.156629
14416.49023 0.156659
14417.82031 0.156688
14419.13965 0.156718
14420.46973 0.156742
14421.79004 0.156758
14423.12012 0.156773
14424.44043 0.156789
14425.75977 0.156809
14427.08984 0.156834
14428.41016 0.156859
14429.74023 0.156884
14431.05957 0.156911
14432.38965 0.15694
14433.70996 0.156969
14435.04004 0.156998
14436.37012 0.157022
14437.69043 0.157047
14439.01953 0.157072
14440.33984 0.157093
14441.66992 0.157102
14443.00000 0.157112
14444.32031 0.157121
14445.65039 0.157136
14446.96973 0.157155
14448.29980 0.157175
14449.62988 0.157195
14450.95996 0.15722
14452.28027 0.157248
14453.61035 0.157276
14454.94043 0.157304
14456.25977 0.157312
14457.58984 0.157318
14458.91992 0.157325
14460.25000 0.157332
14461.57031 0.157339
14462.90039 0.157347
14464.23047 0.157355
14465.55957 0.15737
14466.88965 0.157396
14468.21973 0.157421
14469.54004 0.157446
14470.87012 0.157465
14472.20020 0.15748
14473.53027 0.157495
14474.86035 0.157509
14476.19043 0.157524
14477.51953 0.157538
14478.84961 0.157552
14480.17969 0.157567
14481.50977 0.157585
14482.83984 0.157603
14484.16992 0.157621
14485.50000 0.15764
14486.83008 0.157663
14488.16016 0.157685
14489.49023 0.157708
14490.82031 0.157727
14492.15039 0.157745
14493.48047 0.157763
14494.80957 0.157781
14496.13965 0.15779
14497.46973 0.157798
14498.79980 0.157806
14500.13965 0.157815
14501.46973 0.157835
14502.79980 0.157856
14504.12988 0.157876
14505.45996 0.157894
14506.79004 0.157908
14508.12988 0.157922
14509.45996 0.157937
14510.79004 0.157968
14512.12988 0.15801
14513.45996 0.158053
14514.79004 0.158095
14516.12012 0.158093
14517.45996 0.158082
14518.79004 0.158072
14520.12012 0.158064
14521.45996 0.158082
14522.79004 0.1581
14524.12012 0.158118
14525.45996 0.158133
14526.79004 0.158142
14528.12012 0.15815
14529.45996 0.158159
14530.79004 0.158175
14532.12988 0.158197
14533.45996 0.158219
14534.79980 0.158241
14536.12988 0.158244
14537.46973 0.158244
14538.79980 0.158244
14540.13965 0.158246
14541.46973 0.158269
14542.80957 0.158293
14544.13965 0.158316
14545.48047 0.158334
14546.80957 0.158343
14548.15039 0.158352
14549.49023 0.158361
14550.82031 0.158366
14552.16016 0.158368
14553.49023 0.158371
14554.83008 0.158374
14556.16992 0.158393
14557.50000 0.158415
14558.83984 0.158437
14560.17969 0.158457
14561.50977 0.15846
14562.84961 0.158463
14564.19043 0.158466
14565.53027 0.158471
14566.86035 0.158481
14568.20020 0.158491
14569.54004 0.1585
14570.87988 0.158508
14572.20996 0.158514
14573.54980 0.158521
14574.88965 0.158527
14576.23047 0.158542
14577.57031 0.158558
14578.91016 0.158575
14580.25000 0.158588
14581.58008 0.158593
14582.91992 0.158597
14584.25977 0.158602
14585.59961 0.158607
14586.94043 0.158614
14588.28027 0.158622
14589.62012 0.158629
14590.95996 0.158642
14592.29980 0.158657
14593.63965 0.158672
14594.98047 0.158687
14596.32031 0.15869
14597.66016 0.158693
14599.00000 0.158695
14600.33984 0.158694
14601.67969 0.15868
14603.01953 0.158666
14604.37012 0.158651
14605.70996 0.158649
14607.04980 0.158657
14608.38965 0.158665
14609.73047 0.158673
14611.07031 0.158681
14612.41016 0.158689
14613.75977 0.158697
14615.09961 0.158706
14616.44043 0.158723
14617.78027 0.15874
14619.12012 0.158756
14620.46973 0.158767
14621.80957 0.158767
14623.15039 0.158767
14624.50000 0.158767
14625.83984 0.158764
14627.17969 0.15876
14628.51953 0.158755
14629.87012 0.158751
14631.20996 0.158747
14632.54980 0.158742
14633.90039 0.158738
14635.24023 0.158735
14636.58984 0.158737
14637.92969 0.158738
14639.26953 0.15874
14640.62012 0.158741
14641.95996 0.15874
14643.30957 0.158739
14644.65039 0.158738
14646.00000 0.158737
14647.33984 0.158736
14648.69043 0.158735
14650.03027 0.158735
14651.37988 0.158743
14652.71973 0.158752
14654.07031 0.158761
14655.41016 0.158766
14656.75977 0.158761
14658.11035 0.158756
14659.45020 0.158752
14660.79980 0.158755
14662.13965 0.158765
14663.49023 0.158774
14664.83984 0.158783
14666.17969 0.158769
14667.53027 0.158752
14668.87988 0.158735
14670.23047 0.15872
14671.57031 0.158716
14672.91992 0.158713
14674.26953 0.158709
14675.61035 0.158714
14676.95996 0.15873
14678.30957 0.158746
14679.66016 0.158762
14681.00977 0.158772
14682.34961 0.158781
14683.70020 0.158789
14685.04980 0.158796
14686.40039 0.158781
14687.75000 0.158767
14689.09961 0.158752
14690.45020 0.158748
14691.79004 0.158763
14693.13965 0.158778
14694.49023 0.158794
14695.83984 0.158793
14697.19043 0.158782
14698.54004 0.158771
14699.88965 0.15876
14701.24023 0.158768
14702.58984 0.158778
14703.94043 0.158788
14705.29004 0.158799
14706.63965 0.158811
14707.99023 0.158823
14709.33984 0.158835
14710.69043 0.158846
14712.04004 0.158856
14713.40039 0.158866
14714.75000 0.158877
14716.09961 0.158885
14717.45020 0.158892
14718.79980 0.158899
14720.15039 0.158907
14721.50000 0.158916
14722.86035 0.158925
14724.20996 0.158935
14725.55957 0.158949
14726.91016 0.158973
14728.26953 0.158996
14729.62012 0.159019
14730.96973 0.159035
14732.32031 0.159047
14733.67969 0.159059
14735.03027 0.159071
14736.37988 0.159082
14737.74023 0.159093
14739.08984 0.159104
14740.44043 0.159116
14741.79980 0.15913
14743.15039 0.159144
14744.50000 0.159158
14745.86035 0.159172
14747.20996 0.159187
14748.57031 0.159202
14749.91992 0.159216
14751.26953 0.159226
14752.62988 0.159235
14753.98047 0.159245
14755.33984 0.159254
14756.69043 0.159264
14758.04980 0.159275
14759.40039 0.159285
14760.75977 0.159299
14762.12012 0.159315
14763.46973 0.159332
14764.83008 0.159349
14766.17969 0.159366
14767.54004 0.159383
14768.88965 0.1594
14770.25000 0.159415
14771.61035 0.159422
14772.95996 0.159428
14774.32031 0.159435
14775.67969 0.159451
14777.03027 0.159477
14778.38965 0.159503
14779.75000 0.159529
14781.11035 0.159551
14782.45996 0.159572
14783.82031 0.159593
14785.17969 0.159612
14786.54004 0.159616
14787.88965 0.159619
14789.25000 0.159623
14790.61035 0.159641
14791.96973 0.159677
14793.33008 0.159713
14794.67969 0.159749
14796.04004 0.159767
14797.40039 0.15978
14798.75977 0.159793
14800.12012 0.159806
14801.48047 0.159813
14802.83984 0.159821
14804.20020 0.159829
14805.55957 0.159837
14806.91992 0.159849
14808.28027 0.159859
14809.63965 0.159871
14811.00000 0.159894
14812.36035 0.159923
14813.71973 0.159952
14815.08008 0.159979
14816.44043 0.159984
14817.79980 0.159989
14819.16016 0.159994
14820.51953 0.160005
14821.87988 0.160027
14823.24023 0.160049
14824.59961 0.16007
14825.95996 0.160089
14827.33008 0.160106
14828.69043 0.160123
14830.04980 0.16014
14831.41016 0.160156
14832.76953 0.160171
14834.12988 0.160187
14835.50000 0.160205
14836.86035 0.160228
14838.21973 0.16025
14839.58008 0.160272
14840.95020 0.160289
14842.30957 0.160303
14843.66992 0.160317
14845.04004 0.16033
14846.40039 0.160347
14847.75977 0.160364
14849.12988 0.160381
14850.49023 0.160404
14851.84961 0.160437
14853.21973 0.160469
14854.58008 0.160502
14855.94043 0.160529
14857.30957 0.160554
14858.66992 0.160579
14860.04004 0.160604
14861.40039 0.160623
14862.76953 0.160643
14864.12988 0.160662
14865.50000 0.160684
14866.86035 0.160709
14868.23047 0.160735
14869.58984 0.160761
14870.95996 0.160778
14872.32031 0.160792
14873.69043 0.160805
14875.05957 0.160819
14876.41992 0.160848
14877.79004 0.160877
14879.15039 0.160906
14880.51953 0.160935
14881.88965 0.160966
14883.25000 0.160996
14884.62012 0.161027
14885.99023 0.161052
14887.34961 0.161074
14888.71973 0.161096
14890.08984 0.161119
14891.45996 0.161154
14892.82031 0.161189
14894.19043 0.161224
14895.55957 0.161253
14896.92969 0.161274
14898.29004 0.161295
14899.66016 0.161316
14901.03027 0.161351
14902.40039 0.161391
14903.76953 0.161431
14905.13965 0.161469
14906.50000 0.16149
14907.87012 0.161511
14909.24023 0.161532
14910.61035 0.161555
14911.98047 0.161581
14913.34961 0.161607
14914.71973 0.161632
14916.08984 0.161678
14917.45996 0.161729
14918.83008 0.16178
14920.20020 0.161828
14921.57031 0.161854
14922.94043 0.16188
14924.30957 0.161906
14925.67969 0.161934
14927.04980 0.161965
14928.41992 0.161995
14929.79004 0.162026
14931.16016 0.162062
14932.53027 0.162098
14933.91016 0.162135
14935.28027 0.162174
14936.65039 0.162224
14938.01953 0.162274
14939.38965 0.162324
14940.75977 0.16236
14942.13965 0.162386
14943.50977 0.162412
14944.87988 0.162438
14946.25000 0.162486
14947.62012 0.162535
14949.00000 0.162585
14950.37012 0.162628
14951.74023 0.162655
14953.12012 0.162682
14954.49023 0.162708
14955.86035 0.162747
14957.24023 0.162793
14958.61035 0.162839
14959.98047 0.162886
14961.36035 0.16293
14962.73047 0.162975
14964.11035 0.163019
14965.48047 0.163064
14966.84961 0.163108
14968.23047 0.163153
14969.59961 0.163198
14970.98047 0.163244
14972.34961 0.163291
14973.73047 0.163338
14975.09961 0.163384
14976.48047 0.163423
14977.84961 0.163463
14979.23047 0.163502
14980.59961 0.163546
14981.98047 0.163596
14983.36035 0.163647
14984.73047 0.163697
14986.11035 0.163739
14987.48047 0.163779
14988.86035 0.163819
14990.24023 0.16386
14991.61035 0.163907
14992.99023 0.163955
14994.37012 0.164002
14995.74023 0.164046
14997.12012 0.164086
14998.50000 0.164127
14999.87012 0.164168
15001.25000 0.164206
15002.62988 0.164244
15004.00977 0.164282
15005.37988 0.164317
15006.75977 0.164343
15008.13965 0.164368
15009.51953 0.164394
15010.90039 0.164423
15012.28027 0.164455
15013.65039 0.164487
15015.03027 0.164518
15016.41016 0.164537
15017.79004 0.164555
15019.16992 0.164574
15020.54980 0.164607
15021.92969 0.164664
15023.30957 0.16472
15024.69043 0.164777
15026.07031 0.164791
15027.45020 0.164793
15028.83008 0.164795
15030.20996 0.164802
15031.58984 0.164844
15032.96973 0.164884
15034.34961 0.164926
15035.73047 0.164967
15037.11035 0.16501
15038.49023 0.165052
15039.87012 0.165095
15041.25000 0.165128
15042.62988 0.16516
15044.01953 0.165192
15045.40039 0.165225
15046.78027 0.165259
15048.16016 0.165294
15049.54004 0.165328
15050.91992 0.165362
15052.30957 0.165396
15053.69043 0.165429
15055.07031 0.165463
15056.45020 0.165502
15057.83984 0.16554
15059.21973 0.165579
15060.59961 0.165615
15061.98047 0.165649
15063.37012 0.165682
15064.75000 0.165716
15066.12988 0.165757
15067.51953 0.165799
15068.90039 0.165842
15070.29004 0.165884
15071.66992 0.165928
15073.04980 0.165972
15074.44043 0.166016
15075.82031 0.166057
15077.20996 0.166096
15078.58984 0.166135
15079.98047 0.166175
15081.36035 0.16621
15082.75000 0.166245
15084.12988 0.166281
15085.51953 0.166316
15086.90039 0.166351
15088.29004 0.166386
15089.66992 0.166421
15091.05957 0.166449
15092.44043 0.166474
15093.83008 0.1665
15095.20996 0.16653
15096.59961 0.166585
15097.99023 0.166641
15099.37012 0.166696
15100.75977 0.166744
15102.15039 0.166786
15103.53027 0.166827
15104.91992 0.166868
15106.30957 0.166929
15107.70020 0.166992
15109.08008 0.167054
15110.46973 0.1671
15111.86035 0.167113
15113.25000 0.167127
15114.62988 0.16714
15116.01953 0.167197
15117.41016 0.167268
15118.79980 0.16734
15120.19043 0.167407
15121.58008 0.167445
15122.95996 0.167484
15124.34961 0.167522
15125.74023 0.167565
15127.12988 0.167612
15128.51953 0.167658
15129.91016 0.167705
15131.29980 0.167748
15132.69043 0.167791
15134.08008 0.167833
15135.46973 0.167878
15136.86035 0.167928
15138.25000 0.167978
15139.63965 0.168028
15141.03027 0.16809
15142.41992 0.168155
15143.80957 0.168221
15145.20020 0.168282
15146.58984 0.168315
15147.98047 0.168348
15149.37012 0.168381
15150.75977 0.168417
15152.15039 0.168455
15153.54004 0.168494
15154.94043 0.168532
15156.33008 0.168581
15157.71973 0.16863
15159.11035 0.168679
15160.50000 0.168732
15161.90039 0.16879
15163.29004 0.168848
15164.67969 0.168906
15166.07031 0.168956
15167.46973 0.169003
15168.86035 0.16905
15170.25000 0.1691
15171.65039 0.169162
15173.04004 0.169224
15174.42969 0.169286
15175.83008 0.16933
15177.21973 0.169361
15178.61035 0.169393
15180.00977 0.169425
15181.40039 0.169474
15182.79004 0.169522
15184.19043 0.169571
15185.58008 0.169617
15186.98047 0.169657
15188.37012 0.169698
15189.76953 0.169739
15191.16016 0.169798
15192.55957 0.169862
15193.95020 0.169926
15195.34961 0.169984
15196.74023 0.170023
15198.13965 0.170062
15199.53027 0.170101
15200.92969 0.170155
15202.33008 0.170217
15203.71973 0.170279
15205.12012 0.170341
15206.50977 0.170391
15207.91016 0.170441
15209.30957 0.170492
15210.70020 0.170547
15212.09961 0.170607
15213.50000 0.170668
15214.88965 0.170728
15216.29004 0.170763
15217.69043 0.170795
15219.08984 0.170827
15220.48047 0.170868
15221.87988 0.170924
15223.28027 0.17098
15224.67969 0.171036
15226.08008 0.171076
15227.46973 0.17111
15228.87012 0.171145
15230.26953 0.171185
15231.66992 0.171249
15233.07031 0.171314
15234.46973 0.171378
15235.87012 0.171437
15237.25977 0.171493
15238.66016 0.171548
15240.05957 0.171602
15241.45996 0.171627
15242.86035 0.171652
15244.25977 0.171677
15245.66016 0.171718
15247.05957 0.171779
15248.45996 0.171839
15249.86035 0.1719
15251.25977 0.171947
15252.66016 0.171994
15254.05957 0.17204
15255.45996 0.172092
15256.87012 0.172155
15258.26953 0.172218
15259.66992 0.172281
15261.07031 0.172324
15262.46973 0.172362
15263.87012 0.172399
15265.26953 0.172438
15266.67969 0.172485
15268.08008 0.172531
15269.48047 0.172578
15270.87988 0.172617
15272.29004 0.172651
15273.69043 0.172685
15275.08984 0.172721
15276.49023 0.172776
15277.90039 0.172831
15279.29980 0.172886
15280.70020 0.17293
15282.09961 0.172961
15283.50977 0.172992
15284.91016 0.173024
15286.32031 0.173073
15287.71973 0.173124
15289.12012 0.173176
15290.53027 0.17322
15291.92969 0.173252
15293.33008 0.173285
15294.74023 0.173317
15296.13965 0.173349
15297.54980 0.173382
15298.95020 0.173414
15300.36035 0.173443
15301.75977 0.173464
15303.16992 0.173485
15304.57031 0.173506
15305.98047 0.173531
15307.37988 0.173557
15308.79004 0.173583
15310.20020 0.173609
15311.59961 0.173634
15313.00977 0.173659
15314.41016 0.173683
15315.82031 0.17371
15317.23047 0.173739
15318.62988 0.173767
15320.04004 0.173795
15321.45020 0.173798
15322.84961 0.173801
15324.25977 0.173803
15325.66992 0.173821
15327.08008 0.173854
15328.48047 0.173888
15329.88965 0.173921
15331.29980 0.173921
15332.70996 0.173918
15334.12012 0.173915
15335.51953 0.173916
15336.92969 0.173924
15338.33984 0.173931
15339.75000 0.173938
15341.16016 0.173953
15342.57031 0.173968
15343.96973 0.173984
15345.37988 0.173997
15346.79004 0.174005
15348.20020 0.174014
15349.61035 0.174022
15351.01953 0.174035
15352.42969 0.17405
15353.83984 0.174065
15355.25000 0.174079
15356.66016 0.174088
15358.07031 0.174097
15359.48047 0.174106
15360.88965 0.174116
15362.29980 0.174125
15363.70996 0.174134
15365.12012 0.174144
15366.53027 0.174151
15367.95020 0.174159
15369.36035 0.174167
15370.76953 0.174172
15372.17969 0.174174
15373.58984 0.174176
15375.00000 0.174179
15376.41992 0.17418
15377.83008 0.174182
15379.24023 0.174183
15380.65039 0.174189
15382.05957 0.174201
15383.48047 0.174212
15384.88965 0.174224
15386.29980 0.174221
15387.70996 0.174217
15389.12988 0.174213
15390.54004 0.174207
15391.95020 0.174199
15393.37012 0.17419
15394.78027 0.174181
15396.20020 0.174176
15397.61035 0.17417
15399.01953 0.174165
15400.44043 0.174167
15401.84961 0.174187
15403.26953 0.174206
15404.67969 0.174225
15406.08984 0.174231
15407.50977 0.174234
15408.91992 0.174236
15410.33984 0.174244
15411.75000 0.174272
15413.16992 0.174301
15414.58008 0.174329
15416.00000 0.174335
15417.41992 0.174331
15418.83008 0.174327
15420.25000 0.174325
15421.66016 0.174331
15423.08008 0.174338
15424.50000 0.174344
15425.91016 0.174348
15427.33008 0.17435
15428.75000 0.174353
15430.16016 0.174359
15431.58008 0.174393
15433.00000 0.174427
15434.41016 0.174461
15435.83008 0.174463
15437.25000 0.174443
15438.66992 0.174423
15440.08008 0.174405
15441.50000 0.174406
15442.91992 0.174409
15444.33984 0.174411
15445.75977 0.174411
15447.16992 0.174411
15448.58984 0.17441
15450.00977 0.17441
15451.42969 0.174393
15452.84961 0.174376
15454.26953 0.174359
15455.69043 0.174352
15457.11035 0.174357
15458.53027 0.174361
15459.95020 0.174366
15461.37012 0.174355
15462.79004 0.174344
15464.20996 0.174333
15465.62988 0.174332
15467.04980 0.174343
15468.46973 0.174353
15469.88965 0.174364
15471.30957 0.174344
15472.73047 0.174321
15474.15039 0.174299
15475.57031 0.17428
15476.99023 0.174269
15478.41016 0.174257
15479.83008 0.174245
15481.25977 0.174235
15482.67969 0.174225
15484.09961 0.174214
15485.51953 0.174207
15486.94043 0.174205
15488.37012 0.174203
15489.79004 0.1742
15491.20996 0.174179
15492.62988 0.174155
15494.04980 0.17413
15495.48047 0.174108
15496.90039 0.174092
15498.32031 0.174075
15499.75000 0.174058
15501.16992 0.174029
15502.58984 0.173997
15504.01953 0.173965
15505.44043 0.173936
15506.87012 0.173911
15508.29004 0.173887
15509.70996 0.173862
15511.13965 0.173812
15512.55957 0.173754
15513.99023 0.173697
15515.41016 0.173642
15516.83984 0.173593
15518.25977 0.173544
15519.69043 0.173495
15521.11035 0.173468
15522.54004 0.173446
15523.95996 0.173425
15525.38965 0.173396
15526.80957 0.173348
15528.24023 0.1733
15529.66992 0.173252
15531.08984 0.173199
15532.51953 0.173146
15533.94043 0.173092
15535.37012 0.173041
15536.79980 0.172999
15538.21973 0.172957
15539.65039 0.172915
15541.08008 0.172871
15542.50000 0.172826
15543.92969 0.172781
15545.36035 0.172734
15546.79004 0.172683
15548.20996 0.172632
15549.63965 0.172581
15551.07031 0.17253
15552.50000 0.172479
15553.92969 0.172427
15555.34961 0.172378
15556.78027 0.172334
15558.20996 0.17229
15559.63965 0.172246
15561.07031 0.172205
15562.50000 0.172164
15563.92969 0.172124
15565.36035 0.172079
15566.79004 0.17202
15568.21973 0.171962
15569.63965 0.171903
15571.08008 0.171856
15572.50000 0.171812
15573.92969 0.171769
15575.37012 0.171721
15576.79004 0.171662
15578.23047 0.171603
15579.66016 0.171543
15581.08984 0.171487
15582.51953 0.171431
15583.95020 0.171375
15585.37988 0.171319
15586.80957 0.171262
15588.24023 0.171206
15589.66992 0.171149
15591.11035 0.17109
15592.54004 0.171029
15593.96973 0.170969
15595.40039 0.170916
15596.83008 0.170881
15598.26953 0.170847
15599.70020 0.170812
15601.12988 0.170765
15602.55957 0.170715
15604.00000 0.170666
15605.42969 0.170615
15606.86035 0.170562
15608.29004 0.170509
15609.73047 0.170455
15611.16016 0.170417
15612.58984 0.170382
15614.03027 0.170348
15615.45996 0.170304
15616.90039 0.17024
15618.33008 0.170176
15619.75977 0.170113
15621.20020 0.170063
15622.62988 0.170016
15624.07031 0.169969
15625.50000 0.169927
15626.94043 0.169895
15628.37012 0.169863
15629.80957 0.169832
15631.24023 0.169788
15632.67969 0.169743
15634.11035 0.169698
15635.54980 0.169651
15636.99023 0.169601
15638.41992 0.16955
15639.86035 0.1695
15641.29004 0.169459
15642.73047 0.169419
15644.16992 0.169379
15645.59961 0.16933
15647.04004 0.169269
15648.48047 0.169208
15649.91016 0.169148
15651.34961 0.169105
15652.79004 0.169064
15654.23047 0.169023
15655.66016 0.168973
15657.09961 0.168912
15658.54004 0.168851
15659.98047 0.16879
15661.41992 0.16873
15662.84961 0.168669
15664.29004 0.168608
15665.73047 0.168563
15667.16992 0.168533
15668.61035 0.168503
15670.04980 0.168472
15671.49023 0.168403
15672.91992 0.168333
15674.36035 0.168263
15675.79980 0.168203
15677.24023 0.168151
15678.67969 0.168098
15680.12012 0.168045
15681.55957 0.167997
15683.00000 0.167949
15684.44043 0.1679
15685.87988 0.167858
15687.32031 0.167819
15688.75977 0.16778
15690.20020 0.167738
15691.63965 0.167675
15693.08984 0.167612
15694.53027 0.167549
15695.96973 0.167506
15697.41016 0.167471
15698.84961 0.167437
15700.29004 0.167398
15701.73047 0.167345
15703.17969 0.167291
15704.62012 0.167237
15706.05957 0.167191
15707.50000 0.167147
15708.95020 0.167103
15710.38965 0.167059
15711.83008 0.167014
15713.26953 0.166968
15714.71973 0.166923
15716.16016 0.166866
15717.59961 0.166807
15719.04980 0.166748
15720.49023 0.166695
15721.92969 0.166657
15723.37988 0.166619
15724.82031 0.16658
15726.25977 0.16654
15727.70996 0.166499
15729.15039 0.166459
15730.59961 0.166419
15732.04004 0.166383
15733.49023 0.166346
15734.92969 0.166309
15736.37988 0.166251
15737.82031 0.166191
15739.26953 0.166131
15740.70996 0.166083
15742.16016 0.166046
15743.59961 0.166009
15745.04980 0.165971
15746.50000 0.165925
15747.94043 0.165879
15749.38965 0.165833
15750.83008 0.165787
15752.28027 0.16574
15753.73047 0.165694
15755.16992 0.165647
15756.62012 0.165599
15758.07031 0.165551
15759.50977 0.165503
15760.95996 0.165465
15762.41016 0.165431
15763.86035 0.165398
15765.29980 0.165361
15766.75000 0.165316
15768.20020 0.165271
15769.65039 0.165225
15771.08984 0.165187
15772.54004 0.16515
15773.99023 0.165113
15775.44043 0.16508
15776.88965 0.165053
15778.33984 0.165027
15779.79004 0.165
15781.24023 0.164958
15782.67969 0.164914
15784.12988 0.16487
15785.58008 0.16483
15787.03027 0.164798
15788.48047 0.164766
15789.92969 0.164734
15791.37988 0.164684
15792.83008 0.164634
15794.28027 0.164584
15795.73047 0.164549
15797.17969 0.164529
15798.62988 0.164509
15800.08008 0.164487
15801.54004 0.164435
15802.99023 0.164383
15804.44043 0.164331
15805.88965 0.164297
15807.33984 0.164274
15808.79004 0.164252
15810.25000 0.164227
15811.70020 0.164189
15813.15039 0.16415
15814.59961 0.164112
15816.04980 0.164067
15817.50000 0.16402
15818.95996 0.163972
15820.41016 0.163927
15821.86035 0.163888
15823.32031 0.163849
15824.76953 0.16381
15826.21973 0.163777
15827.67969 0.163745
15829.12988 0.163713
15830.58008 0.163682
15832.04004 0.163653
15833.49023 0.163623
15834.94043 0.163594
15836.40039 0.163562
15837.84961 0.163531
15839.30957 0.163499
15840.75977 0.163457
15842.21973 0.163404
15843.66992 0.163352
15845.12988 0.163304
15846.58008 0.16329
15848.04004 0.163277
15849.49023 0.163263
15850.95020 0.163237
15852.40039 0.163204
15853.86035 0.163171
15855.30957 0.16314
15856.76953 0.16312
15858.23047 0.1631
15859.67969 0.163079
15861.13965 0.163055
15862.59961 0.16303
15864.04980 0.163005
15865.50977 0.162979
15866.96973 0.162953
15868.41992 0.162926
15869.87988 0.1629
15871.33984 0.162871
15872.79004 0.162842
15874.25000 0.162813
15875.70996 0.162789
15877.16992 0.162772
15878.62988 0.162754
15880.08008 0.162737
15881.54004 0.162712
15883.00000 0.162688
15884.45996 0.162664
15885.91992 0.162639
15887.37988 0.162613
15888.83984 0.162586
15890.29004 0.162565
15891.75000 0.16256
15893.20996 0.162556
15894.66992 0.162551
15896.12988 0.162533
15897.58984 0.162511
15899.04980 0.162489
15900.50977 0.162478
15901.96973 0.16249
15903.42969 0.162502
15904.88965 0.162514
15906.34961 0.16251
15907.80957 0.162505
15909.28027 0.1625
15910.74023 0.1625
15912.20020 0.162504
15913.66016 0.162509
15915.12012 0.162514
15916.58008 0.16252
15918.04004 0.162526
15919.50000 0.162532
15920.96973 0.16254
15922.42969 0.162548
15923.88965 0.162556
15925.34961 0.162564
15926.82031 0.16257
15928.28027 0.162577
15929.74023 0.162583
15931.20020 0.162612
15932.66992 0.162646
15934.12988 0.16268
15935.58984 0.162697
15937.05957 0.16269
15938.51953 0.162683
15939.98047 0.162676
15941.45020 0.162698
15942.91016 0.162721
15944.37012 0.162744
15945.83984 0.162765
15947.29980 0.162785
15948.76953 0.162805
15950.23047 0.162823
15951.70020 0.162834
15953.16016 0.162845
15954.62988 0.162856
15956.08984 0.16287
15957.55957 0.162883
15959.01953 0.162897
15960.49023 0.162915
15961.95020 0.16294
15963.41992 0.162965
15964.88965 0.162991
15966.34961 0.163028
15967.82031 0.163067
15969.28027 0.163105
15970.75000 0.163124
15972.21973 0.163125
15973.67969 0.163125
15975.15039 0.163128
15976.62012 0.16315
15978.08008 0.163173
15979.54980 0.163195
15981.01953 0.163225
15982.49023 0.163257
15983.95996 0.16329
15985.41992 0.163317
15986.88965 0.163333
15988.36035 0.163349
15989.83008 0.163364
15991.29980 0.163399
15992.75977 0.163436
15994.23047 0.163474
15995.70020 0.163508
15997.16992 0.16354
15998.63965 0.163572
16000.11035 0.163605
16001.58008 0.163655
16003.04980 0.163705
16004.51953 0.163756
16005.99023 0.163815
16007.45996 0.16388
16008.92969 0.163944
16010.40039 0.164006
16011.87012 0.164061
16013.33984 0.164117
16014.80957 0.164172
16016.28027 0.16423
16017.75000 0.164289
16019.21973 0.164348
16020.69043 0.164413
16022.16016 0.164486
16023.62988 0.164559
16025.09961 0.16463
16026.58008 0.164688
16028.04980 0.164746
16029.51953 0.164803
16030.99023 0.16486
16032.45996 0.164917
16033.94043 0.164974
16035.41016 0.165034
16036.87988 0.165104
16038.34961 0.165174
16039.83008 0.165243
16041.29980 0.165319
16042.76953 0.165395
16044.25000 0.165471
16045.71973 0.165541
16047.19043 0.165603
16048.66992 0.165666
16050.13965 0.165732
16051.61035 0.165822
16053.08984 0.165911
16054.55957 0.166001
16056.04004 0.166076
16057.50977 0.166145
16058.99023 0.166214
16060.45996 0.166279
16061.94043 0.166335
16063.41016 0.166392
16064.87988 0.166448
16066.36035 0.166528
16067.83984 0.166609
16069.30957 0.166691
16070.79004 0.166767
16072.25977 0.166838
16073.74023 0.166908
16075.20996 0.166982
16076.69043 0.167067
16078.16992 0.167153
16079.63965 0.167239
16081.12012 0.167308
16082.59961 0.167373
16084.07031 0.167437
16085.54980 0.167516
16087.03027 0.167618
16088.50000 0.167721
16089.98047 0.167823
16091.45996 0.167907
16092.94043 0.16799
16094.41992 0.168073
16095.88965 0.16815
16097.37012 0.168223
16098.84961 0.168297
16100.33008 0.168376
16101.80957 0.168474
16103.29004 0.168573
16104.75977 0.168672
16106.24023 0.168764
16107.71973 0.168855
16109.20020 0.168945
16110.67969 0.169026
16112.16016 0.169096
16113.63965 0.169165
16115.12012 0.169237
16116.59961 0.169334
16118.08008 0.169431
16119.55957 0.169528
16121.04004 0.169646
16122.51953 0.169772
16124.00000 0.169899
16125.48047 0.170014
16126.95996 0.170108
16128.44043 0.170201
16129.91992 0.170294
16131.41016 0.170384
16132.88965 0.170475
16134.37012 0.170565
16135.84961 0.170672
16137.33008 0.170791
16138.80957 0.17091
16140.29980 0.171025
16141.78027 0.171117
16143.25977 0.17121
16144.74023 0.171302
16146.21973 0.171395
16147.70996 0.171487
16149.19043 0.171579
16150.66992 0.171686
16152.16016 0.171809
16153.63965 0.171933
16155.12012 0.172054
16156.61035 0.172158
16158.08984 0.172262
16159.57031 0.172365
16161.05957 0.172459
16162.54004 0.172549
16164.03027 0.172639
16165.50977 0.172736
16167.00000 0.17285
16168.48047 0.172963
16169.95996 0.173076
16171.45020 0.173171
16172.92969 0.173265
16174.41992 0.17336
16175.91016 0.17347
16177.38965 0.173592
16178.87988 0.173713
16180.36035 0.173829
16181.84961 0.173928
16183.33008 0.174028
16184.82031 0.174127
16186.30957 0.174237
16187.79004 0.174348
16189.28027 0.17446
16190.76953 0.174567
16192.25000 0.174669
16193.74023 0.174772
16195.23047 0.174877
16196.70996 0.174998
16198.20020 0.175119
16199.69043 0.17524
16201.17969 0.175341
16202.66016 0.175436
16204.15039 0.175531
16205.63965 0.175625
16207.12988 0.175717
16208.62012 0.17581
16210.09961 0.175904
16211.58984 0.176018
16213.08008 0.176132
16214.57031 0.176247
16216.05957 0.176351
16217.54980 0.176452
16219.04004 0.176553
16220.53027 0.176654
16222.01953 0.176759
16223.50977 0.176863
16225.00000 0.176967
16226.49023 0.177086
16227.98047 0.177205
16229.46973 0.177324
16230.95996 0.177428
16232.45020 0.177522
16233.94043 0.177617
16235.42969 0.177716
16236.91992 0.177823
16238.41016 0.177931
16239.90039 0.178039
16241.38965 0.178139
16242.87988 0.178237
16244.37988 0.178336
16245.87012 0.178438
16247.36035 0.178543
16248.84961 0.178649
16250.33984 0.178752
16251.83984 0.178849
16253.33008 0.178946
16254.82031 0.179043
16256.30957 0.179152
16257.80957 0.179262
16259.29980 0.179372
16260.79004 0.179481
16262.29004 0.179588
16263.78027 0.179695
16265.26953 0.1798
16266.76953 0.179901
16268.25977 0.180002
16269.75000 0.180103
16271.25000 0.180199
16272.74023 0.180295
16274.24023 0.180391
16275.73047 0.180496
16277.23047 0.180613
16278.71973 0.180729
16280.21973 0.180841
16281.70996 0.180923
16283.20996 0.181004
16284.70020 0.181086
16286.20020 0.181185
16287.69043 0.181289
16289.19043 0.181393
16290.67969 0.181498
16292.17969 0.181604
16293.67969 0.18171
16295.16992 0.181817
16296.66992 0.181933
16298.16992 0.182049
16299.66016 0.182165
16301.16016 0.182253
16302.66016 0.182332
16304.15039 0.182412
16305.65039 0.182501
16307.15039 0.182601
16308.63965 0.182702
16310.13965 0.182805
16311.63965 0.182924
16313.13965 0.183044
16314.63965 0.183164
16316.12988 0.183259
16317.62988 0.183347
16319.12988 0.183434
16320.62988 0.183519
16322.12988 0.183599
16323.62988 0.183679
16325.12988 0.183762
16326.62988 0.183873
16328.12012 0.183984
16329.62012 0.184096
16331.12012 0.184191
16332.62012 0.18428
16334.12012 0.184369
16335.62012 0.184461
16337.12012 0.184556
16338.62012 0.184651
16340.12012 0.184746
16341.62012 0.18484
16343.12988 0.184934
16344.62988 0.185028
16346.12988 0.185133
16347.62988 0.18524
16349.12988 0.185347
16350.62988 0.185436
16352.12988 0.1855
16353.62988 0.185564
16355.12988 0.185633
16356.63965 0.18575
16358.13965 0.185866
16359.63965 0.185983
16361.13965 0.186068
16362.65039 0.186143
16364.15039 0.186218
16365.65039 0.1863
16367.15039 0.18639
16368.66016 0.186481
16370.16016 0.18657
16371.66016 0.186647
16373.16992 0.186724
16374.66992 0.186801
16376.16992 0.186902
16377.67969 0.187009
16379.17969 0.187117
16380.69043 0.187209
16382.19043 0.187285
16383.69043 0.18736
16385.19922 0.187438
16386.69922 0.187539
16388.21094 0.187639
16389.71094 0.18774
16391.22070 0.187808
16392.72070 0.18787
16394.23047 0.187931
16395.73047 0.188006
16397.24023 0.188097
16398.75000 0.188188
16400.25000 0.188282
16401.75977 0.188388
16403.25977 0.188494
16404.76953 0.188601
16406.27930 0.188666
16407.77930 0.188724
16409.28906 0.188782
16410.80078 0.188857
16412.30078 0.188946
16413.81055 0.189035
16415.32031 0.18912
16416.83008 0.18919
16418.33008 0.18926
16419.83984 0.189329
16421.34961 0.189404
16422.85938 0.189479
16424.36914 0.189555
16425.86914 0.189629
16427.38086 0.189703
16428.89062 0.189776
16430.40039 0.18985
16431.91016 0.189921
16433.41992 0.189993
16434.92969 0.190065
16436.43945 0.190144
16437.94922 0.190223
16439.44922 0.190302
16440.96094 0.190377
16442.47070 0.19045
16443.98047 0.190523
16445.49023 0.190588
16447.00000 0.190633
16448.50977 0.190679
16450.01953 0.190725
16451.53906 0.19081
16453.03906 0.190895
16454.56055 0.19098
16456.07031 0.19105
16457.58008 0.191113
16459.08984 0.191177
16460.59961 0.191247
16462.10938 0.191328
16463.61914 0.191409
16465.14062 0.191489
16466.65039 0.191555
16468.16016 0.191622
16469.66992 0.191688
16471.18945 0.191747
16472.69922 0.191803
16474.21094 0.191859
16475.72070 0.191918
16477.24023 0.191979
16478.75000 0.192041
16480.25977 0.192104
16481.77930 0.192171
16483.28906 0.192239
16484.80078 0.192307
16486.32031 0.192361
16487.83008 0.192414
16489.34961 0.192466
16490.85938 0.192527
16492.36914 0.192596
16493.89062 0.192665
16495.40039 0.192727
16496.91992 0.192772
16498.42969 0.192816
16499.94922 0.192861
16501.46094 0.192914
16502.98047 0.192968
16504.49023 0.193021
16506.00977 0.193078
16507.52930 0.193136
16509.03906 0.193194
16510.56055 0.193242
16512.07031 0.193269
16513.58984 0.193297
16515.10938 0.193327
16516.61914 0.193391
16518.14062 0.193456
16519.66016 0.193521
16521.16992 0.193581
16522.68945 0.193641
16524.21094 0.1937
16525.72070 0.193742
16527.24023 0.193762
16528.75977 0.193783
16530.27930 0.193809
16531.80078 0.193857
16533.31055 0.193904
16534.83008 0.193951
16536.34961 0.19401
16537.86914 0.194071
16539.39062 0.194131
16540.91016 0.194174
16542.42969 0.194205
16543.94922 0.194237
16545.46094 0.194268
16546.98047 0.1943
16548.50000 0.194332
16550.01953 0.194364
16551.53906 0.19443
16553.06055 0.194496
16554.58008 0.194562
16556.09961 0.194595
16557.61914 0.194614
16559.14062 0.194634
16560.66016 0.194665
16562.18945 0.19471
16563.71094 0.194755
16565.23047 0.194801
16566.75000 0.194852
16568.26953 0.194902
16569.78906 0.194953
16571.31055 0.194975
16572.83008 0.194993
16574.35938 0.19501
16575.88086 0.195047
16577.40039 0.195099
16578.91992 0.19515
16580.44922 0.195197
16581.97070 0.195234
16583.49023 0.19527
16585.00977 0.195307
16586.53906 0.195338
16588.06055 0.195369
16589.58008 0.195399
16591.10938 0.195435
16592.63086 0.195472
16594.15039 0.19551
16595.67969 0.19555
16597.19922 0.195593
16598.72070 0.195637
16600.25000 0.195679
16601.76953 0.195718
16603.30078 0.195757
16604.82031 0.195796
16606.34961 0.195834
16607.86914 0.195872
16609.40039 0.195909
16610.91992 0.195953
16612.44922 0.196001
16613.97070 0.196049
16615.50000 0.196089
16617.02930 0.196111
16618.55078 0.196134
16620.08008 0.196159
16621.59961 0.196225
16623.13086 0.196291
16624.66016 0.196357
16626.17969 0.196387
16627.71094 0.196406
16629.24023 0.196424
16630.75977 0.196462
16632.28906 0.196519
16633.82031 0.196576
16635.34961 0.196629
16636.86914 0.19667
16638.40039 0.196711
16639.92969 0.196752
16641.46094 0.196775
16642.99023 0.196797
16644.50977 0.196819
16646.03906 0.196851
16647.57031 0.196887
16649.09961 0.196923
16650.63086 0.19697
16652.16016 0.197032
16653.68945 0.197095
16655.22070 0.197152
16656.75000 0.197176
16658.27930 0.1972
16659.80078 0.197224
16661.33008 0.197252
16662.86914 0.19728
16664.39062 0.197309
16665.92969 0.197354
16667.46094 0.197412
16668.99023 0.197469
16670.51953 0.197518
16672.05078 0.19755
16673.58008 0.197583
16675.10938 0.197617
16676.64062 0.197673
16678.16992 0.19773
16679.71094 0.197787
16681.24023 0.197813
16682.76953 0.197832
16684.30078 0.19785
16685.83008 0.197886
16687.36914 0.197938
16688.90039 0.197989
16690.42969 0.198038
16691.96094 0.198082
16693.49023 0.198125
16695.02930 0.198169
16696.56055 0.198202
16698.08984 0.198235
16699.63086 0.198268
16701.16016 0.198312
16702.69922 0.198361
16704.23047 0.198409
16705.75977 0.198461
16707.30078 0.198518
16708.83008 0.198575
16710.36914 0.198621
16711.90039 0.198634
16713.42969 0.198647
16714.97070 0.19866
16716.50000 0.198708
16718.03906 0.198756
16719.57031 0.198804
16721.10938 0.198849
16722.64062 0.198893
16724.17969 0.198937
16725.72070 0.198986
16727.25000 0.199041
16728.78906 0.199096
16730.32031 0.199147
16731.85938 0.199186
16733.40039 0.199225
16734.92969 0.199264
16736.47070 0.199302
16738.00977 0.19934
16739.53906 0.199378
16741.08008 0.199414
16742.61914 0.199451
16744.16016 0.199487
16745.69922 0.199527
16747.23047 0.19957
16748.76953 0.199613
16750.31055 0.199659
16751.84961 0.19972
16753.38086 0.199782
16754.91992 0.199843
16756.46094 0.199883
16758.00000 0.199923
16759.53906 0.199963
16761.08008 0.200033
16762.61914 0.200116
16764.16016 0.200199
16765.69922 0.200265
16767.24023 0.20031
16768.77930 0.200356
16770.32031 0.2004
16771.85938 0.200438
16773.40039 0.200476
16774.93945 0.200514
16776.48047 0.20058
16778.01953 0.200647
16779.56055 0.200714
16781.09961 0.200758
16782.64062 0.200793
16784.17969 0.200828
16785.72070 0.200872
16787.25977 0.200927
16788.80078 0.200982
16790.34961 0.201042
16791.89062 0.20112
16793.42969 0.201198
16794.97070 0.201277
16796.51953 0.201333
16798.06055 0.20139
16799.59961 0.201446
16801.14062 0.201501
16802.68945 0.201555
16804.23047 0.201609
16805.76953 0.201675
16807.31055 0.201753
16808.85938 0.201831
16810.40039 0.201903
16811.94922 0.201956
16813.49023 0.20201
16815.02930 0.202064
16816.58008 0.202131
16818.11914 0.202198
16819.66992 0.202265
16821.21094 0.202335
16822.75977 0.202405
16824.30078 0.202475
16825.84961 0.202547
16827.39062 0.20262
16828.93945 0.202693
16830.48047 0.202769
16832.02930 0.202848
16833.57031 0.202928
16835.11914 0.203008
16836.66016 0.203079
16838.21094 0.203151
16839.75977 0.203222
16841.30078 0.203295
16842.84961 0.203369
16844.40039 0.203442
16845.93945 0.203513
16847.49023 0.203582
16849.03906 0.203651
16850.58008 0.203721
16852.13086 0.203792
16853.67969 0.203863
16855.23047 0.203935
16856.77930 0.204018
16858.32031 0.2041
16859.86914 0.204182
16861.41992 0.204248
16862.97070 0.204311
16864.51953 0.204375
16866.06055 0.204453
16867.60938 0.204537
16869.16016 0.204621
16870.71094 0.204702
16872.25977 0.204778
16873.81055 0.204854
16875.35938 0.204935
16876.91016 0.205033
16878.46094 0.205131
16880.00977 0.205229
16881.56055 0.205329
16883.10938 0.205429
16884.66016 0.205529
16886.21094 0.205591
16887.75977 0.205642
16889.31055 0.205693
16890.85938 0.205768
16892.41016 0.20586
16893.96094 0.205953
16895.51953 0.206047
16897.07031 0.206143
16898.61914 0.206239
16900.16992 0.206334
16901.72070 0.206425
16903.27930 0.206516
16904.83008 0.206607
16906.38086 0.206679
16907.92969 0.206748
16909.49023 0.206818
16911.03906 0.206904
16912.58984 0.206998
16914.14062 0.207093
16915.69922 0.207182
16917.25000 0.207263
16918.80078 0.207345
16920.35938 0.20742
16921.91016 0.207473
16923.47070 0.207527
16925.01953 0.207581
16926.57031 0.207679
16928.13086 0.207776
16929.67969 0.207874
16931.24023 0.207968
16932.78906 0.208061
16934.34961 0.208153
16935.90039 0.208228
16937.46094 0.208291
16939.00977 0.208354
16940.57031 0.208427
16942.13086 0.208521
16943.67969 0.208615
16945.24023 0.208706
16946.78906 0.208781
16948.34961 0.208856
16949.90039 0.208931
16951.46094 0.20903
16953.01953 0.20913
16954.57031 0.209231
16956.13086 0.209306
16957.68945 0.20937
16959.25000 0.209435
16960.80078 0.209527
16962.35938 0.209646
16963.91992 0.209765
16965.48047 0.209875
16967.03906 0.209964
16968.58984 0.210052
16970.15039 0.210138
16971.71094 0.210197
16973.26953 0.210256
16974.83008 0.210315
16976.38086 0.210414
16977.93945 0.210518
16979.50000 0.210623
16981.06055 0.210713
16982.61914 0.210797
16984.17969 0.210881
16985.74023 0.210967
16987.30078 0.211053
16988.85938 0.21114
16990.41992 0.211222
16991.98047 0.211295
16993.53906 0.211368
16995.09961 0.211443
16996.66016 0.211546
16998.22070 0.211648
16999.78906 0.21175
17001.34961 0.211797
17002.91016 0.211836
17004.47070 0.211874
17006.02930 0.211906
17007.58984 0.211934
17009.15039 0.211962
17010.71094 0.211985
17012.27930 0.212002
17013.83984 0.212018
17015.40039 0.212042
17016.96094 0.212087
17018.52930 0.212131
17020.08984 0.212175
17021.65039 0.212205
17023.21094 0.212236
17024.77930 0.212267
17026.33984 0.212311
17027.91016 0.212358
17029.47070 0.212404
17031.02930 0.212424
17032.59961 0.21243
17034.16016 0.212437
17035.73047 0.212448
17037.28906 0.212466
17038.85938 0.212483
17040.41992 0.212508
17041.98047 0.212552
17043.55078 0.212596
17045.10938 0.212639
17046.67969 0.212664
17048.24023 0.212689
17049.81055 0.212713
17051.38086 0.2127
17052.93945 0.212682
17054.50977 0.212664
17056.07031 0.212685
17057.64062 0.212726
17059.21094 0.212766
17060.76953 0.212798
17062.33984 0.21282
17063.91016 0.212843
17065.47070 0.212869
17067.03906 0.212905
17068.60938 0.21294
17070.17969 0.212974
17071.74023 0.212991
17073.31055 0.213008
17074.88086 0.213025
17076.44922 0.213015
17078.01953 0.213003
17079.58008 0.212991
17081.15039 0.212992
17082.72070 0.212998
17084.28906 0.213004
17085.85938 0.21302
17087.42969 0.213046
17089.00000 0.213071
17090.56055 0.213084
17092.13086 0.213075
17093.69922 0.213065
17095.26953 0.213056
17096.83984 0.213053
17098.41016 0.213049
17099.98047 0.213045
17101.55078 0.213084
17103.11914 0.213123
17104.69922 0.213162
17106.26953 0.213182
17107.83984 0.213197
17109.41016 0.213213
17110.98047 0.213243
17112.55078 0.213282
17114.11914 0.21332
17115.68945 0.21334
17117.26953 0.213335
17118.83984 0.21333
17120.41016 0.213334
17121.98047 0.213363
17123.55078 0.213393
17125.13086 0.213421
17126.69922 0.213433
17128.26953 0.213445
17129.83984 0.213457
17131.41992 0.213441
17132.99023 0.213421
17134.56055 0.213401
17136.14062 0.213411
17137.71094 0.213431
17139.28906 0.213451
17140.85938 0.213456
17142.42969 0.213449
17144.00977 0.213443
17145.58008 0.213433
17147.16016 0.213419
17148.73047 0.213404
17150.30078 0.213396
17151.88086 0.213416
17153.46094 0.213436
17155.02930 0.213455
17156.60938 0.213442
17158.17969 0.213429
17159.75977 0.213417
17161.33008 0.213378
17162.91016 0.213334
17164.48047 0.213291
17166.06055 0.213279
17167.64062 0.213283
17169.21094 0.213286
17170.78906 0.213284
17172.36914 0.213277
17173.93945 0.21327
17175.51953 0.213248
17177.09961 0.213197
17178.67969 0.213146
17180.25000 0.213097
17181.83008 0.213065
17183.41016 0.213033
17184.99023 0.213001
17186.56055 0.212977
17188.14062 0.212952
17189.72070 0.212927
17191.30078 0.212873
17192.88086 0.212814
17194.46094 0.212754
17196.03906 0.212717
17197.61914 0.212692
17199.19922 0.212668
17200.76953 0.212633
17202.34961 0.212588
17203.92969 0.212543
17205.50977 0.212501
17207.08984 0.212463
17208.66992 0.212425
17210.25000 0.212387
17211.83008 0.212348
17213.41016 0.212309
17215.00000 0.21227
17216.58008 0.2122
17218.16016 0.21213
17219.74023 0.21206
17221.32031 0.212009
17222.90039 0.211962
17224.48047 0.211915
17226.06055 0.211868
17227.65039 0.211822
17229.23047 0.211776
17230.81055 0.211726
17232.39062 0.211673
17233.97070 0.21162
17235.56055 0.211559
17237.14062 0.211483
17238.72070 0.211408
17240.31055 0.211333
17241.89062 0.211262
17243.47070 0.211191
17245.06055 0.21112
17246.64062 0.211047
17248.22070 0.210975
17249.81055 0.210902
17251.39062 0.210817
17252.98047 0.210729
17254.56055 0.210642
17256.14062 0.210568
17257.73047 0.210498
17259.31055 0.210429
17260.90039 0.210345
17262.48047 0.21025
17264.07031 0.210155
17265.65039 0.210056
17267.24023 0.209953
17268.83008 0.209849
17270.41016 0.209755
17272.00000 0.209687
17273.58008 0.20962
17275.16992 0.20955
17276.75977 0.209466
17278.33984 0.209382
17279.92969 0.209298
17281.51953 0.209216
17283.09961 0.209134
17284.68945 0.209052
17286.27930 0.208934
17287.86914 0.208807
17289.44922 0.208679
17291.03906 0.208564
17292.63086 0.208455
17294.22070 0.208346
17295.80078 0.20825
17297.39062 0.208166
17298.98047 0.208083
17300.57031 0.207986
17302.16016 0.207864
17303.75000 0.207741
17305.33984 0.207617
17306.92969 0.207483
17308.50977 0.20735
17310.09961 0.207219
17311.68945 0.20712
17313.27930 0.207022
17314.86914 0.206923
17316.46094 0.206788
17318.05078 0.206649
17319.64062 0.20651
17321.23047 0.206373
17322.82031 0.206236
17324.41992 0.206099
17326.00977 0.20598
17327.59961 0.205871
17329.18945 0.205762
17330.77930 0.205641
17332.36914 0.205507
17333.96094 0.205374
17335.55078 0.20524
17337.15039 0.205107
17338.74023 0.204975
17340.33008 0.204844
17341.91992 0.20472
17343.51953 0.204597
17345.10938 0.204473
17346.69922 0.204331
17348.28906 0.204189
17349.89062 0.204047
17351.48047 0.203913
17353.07031 0.203781
17354.66992 0.203648
17356.25977 0.203518
17357.85938 0.203388
17359.44922 0.203259
17361.03906 0.203128
17362.64062 0.202997
17364.23047 0.202866
17365.83008 0.202745
17367.41992 0.202636
17369.01953 0.202526
17370.60938 0.202403
17372.21094 0.202256
17373.80078 0.202109
17375.40039 0.20197
17376.99023 0.201855
17378.58984 0.20174
17380.17969 0.201621
17381.77930 0.201477
17383.38086 0.201333
17384.97070 0.201189
17386.57031 0.201028
17388.16992 0.200867
17389.75977 0.200706
17391.35938 0.200587
17392.96094 0.200476
17394.55078 0.200365
17396.15039 0.200247
17397.75000 0.200128
17399.34961 0.200008
17400.93945 0.199877
17402.53906 0.199739
17404.14062 0.199601
17405.74023 0.199484
17407.33984 0.199393
17408.93945 0.199302
17410.52930 0.199203
17412.13086 0.199091
17413.73047 0.198979
17415.33008 0.198865
17416.92969 0.198742
17418.52930 0.198619
17420.13086 0.198497
17421.73047 0.19839
17423.33008 0.198284
17424.92969 0.198177
17426.52930 0.198086
17428.13086 0.197995
17429.73047 0.197905
17431.33008 0.197798
17432.92969 0.197688
17434.52930 0.197577
17436.13086 0.19748
17437.73047 0.197388
17439.33008 0.197297
17440.93945 0.197205
17442.53906 0.197114
17444.14062 0.197022
17445.74023 0.196931
17447.33984 0.19684
17448.94922 0.196749
17450.55078 0.19666
17452.15039 0.196576
17453.75000 0.196493
17455.35938 0.196419
17456.96094 0.19638
17458.56055 0.19634
17460.16992 0.196294
17461.76953 0.196191
17463.36914 0.196089
17464.98047 0.195986
17466.58008 0.195907
17468.17969 0.195829
17469.78906 0.19575
17471.39062 0.195682
17473.00000 0.195615
17474.59961 0.195548
17476.21094 0.195488
17477.81055 0.195431
17479.41992 0.195373
17481.01953 0.195323
17482.63086 0.195278
17484.23047 0.195234
17485.83984 0.195174
17487.43945 0.195101
17489.05078 0.195027
17490.65039 0.19498
17492.25977 0.194969
17493.86914 0.194959
17495.47070 0.194941
17497.08008 0.194907
17498.68945 0.194873
17500.28906 0.194839
17501.90039 0.194808
17503.50977 0.194776
17505.11914 0.194743
17506.72070 0.194686
17508.33008 0.194629
17509.93945 0.194572
17511.55078 0.194532
17513.15039 0.194493
17514.75977 0.194454
17516.36914 0.194416
17517.98047 0.194379
17519.58984 0.194341
17521.19922 0.194327
17522.81055 0.194321
17524.41992 0.194315
17526.01953 0.194321
17527.63086 0.194335
17529.24023 0.194349
17530.84961 0.194356
17532.46094 0.194357
17534.07031 0.194357
17535.67969 0.19435
17537.28906 0.194332
17538.90039 0.194315
17540.50977 0.194315
17542.13086 0.194355
17543.74023 0.194395
17545.34961 0.194427
17546.96094 0.194431
17548.57031 0.194434
17550.17969 0.194443
17551.78906 0.194488
17553.40039 0.194532
17555.01953 0.194577
17556.63086 0.194621
17558.24023 0.194664
17559.84961 0.194708
17561.46094 0.19474
17563.08008 0.194772
17564.68945 0.194803
17566.30078 0.19488
17567.91992 0.194968
17569.52930 0.195055
17571.14062 0.19513
17572.75977 0.195198
17574.36914 0.195267
17575.98047 0.195333
17577.59961 0.195396
17579.21094 0.195459
17580.83008 0.195532
17582.43945 0.195615
17584.06055 0.195698
17585.66992 0.195783
17587.28906 0.195872
17588.90039 0.19596
17590.51953 0.196055
17592.13086 0.196166
17593.75000 0.196277
17595.35938 0.196383
17596.98047 0.196472
17598.58984 0.196561
17600.21094 0.196659
17601.83008 0.196819
17603.43945 0.196979
17605.06055 0.197139
17606.67969 0.197293
17608.28906 0.197447
17609.91016 0.197602
17611.52930 0.19775
17613.14062 0.197898
17614.75977 0.198045
17616.38086 0.198215
17618.00000 0.19839
17619.61914 0.198564
17621.23047 0.198763
17622.84961 0.19897
17624.47070 0.199178
17626.08984 0.199338
17627.71094 0.199475
17629.33008 0.199612
17630.94922 0.19978
17632.56055 0.19997
17634.17969 0.20016
17635.80078 0.200356
17637.41992 0.200557
17639.03906 0.200758
17640.66016 0.200965
17642.27930 0.201181
17643.90039 0.201397
17645.51953 0.201605
17647.14062 0.201796
17648.75977 0.201986
17650.38086 0.202185
17652.00000 0.202409
17653.61914 0.202633
17655.25000 0.20286
17656.86914 0.203106
17658.49023 0.203353
17660.10938 0.203599
17661.73047 0.203842
17663.34961 0.204086
17664.98047 0.204329
17666.59961 0.204569
17668.22070 0.20481
17669.83984 0.20505
17671.46094 0.205294
17673.08984 0.205539
17674.71094 0.205784
17676.33008 0.206034
17677.96094 0.206286
17679.58008 0.206538
17681.21094 0.206798
17682.83008 0.20706
17684.44922 0.207322
17686.08008 0.207547
17687.69922 0.207753
17689.32031 0.207958
17690.94922 0.208198
17692.57031 0.208462
17694.19922 0.208727
17695.82031 0.208986
17697.44922 0.209242
17699.07031 0.209498
17700.69922 0.209741
17702.32031 0.209967
17703.94922 0.210194
17705.57031 0.210421
17707.19922 0.210649
17708.83008 0.210877
17710.44922 0.211104
17712.08008 0.211327
17713.71094 0.21155
17715.33008 0.211777
17716.96094 0.21202
17718.58984 0.212263
17720.21094 0.212502
17721.83984 0.212714
17723.47070 0.212927
17725.09961 0.213139
17726.72070 0.213337
17728.34961 0.213535
17729.98047 0.213733
17731.60938 0.213899
17733.24023 0.214065
17734.85938 0.21423
17736.49023 0.214456
17738.11914 0.214687
17739.75000 0.214918
17741.38086 0.21506
17743.00977 0.215185
17744.64062 0.215311
17746.26953 0.215454
17747.90039 0.215602
17749.52930 0.215751
17751.16016 0.21589
17752.78906 0.216026
17754.41992 0.216162
17756.05078 0.216252
17757.67969 0.216316
17759.31055 0.21638
17760.93945 0.21643
17762.57031 0.216469
17764.19922 0.216508
17765.83008 0.216536
17767.46094 0.216555
17769.09961 0.216574
17770.73047 0.216575
17772.35938 0.216555
17773.99023 0.216535
17775.61914 0.216513
17777.25977 0.216489
17778.89062 0.216466
17780.51953 0.216432
17782.15039 0.216376
17783.78906 0.216321
17785.41992 0.216235
17787.05078 0.216062
17788.68945 0.215888
17790.32031 0.215711
17791.96094 0.215522
17793.58984 0.215334
17795.22070 0.215142
17796.85938 0.214929
17798.49023 0.214716
17800.13086 0.214496
17801.75977 0.214189
17803.39062 0.213883
17805.02930 0.213577
17806.66016 0.213269
17808.30078 0.212962
17809.93945 0.212654
17811.57031 0.212258
17813.21094 0.211858
17814.83984 0.211458
17816.48047 0.211009
17818.10938 0.210554
17819.75000 0.210098
17821.39062 0.209563
17823.01953 0.209014
17824.66016 0.208464
17826.30078 0.207864
17827.92969 0.20725
17829.57031 0.206636
17831.21094 0.206032
17832.84961 0.205432
17834.48047 0.204831
17836.11914 0.204159
17837.75977 0.203455
17839.40039 0.202751
17841.03906 0.202005
17842.66992 0.201235
17844.31055 0.200466
17845.94922 0.199657
17847.58984 0.198818
17849.23047 0.197981
17850.86914 0.197089
17852.50977 0.196148
17854.15039 0.195207
17855.78906 0.194247
17857.42969 0.193264
17859.06055 0.192282
17860.71094 0.191266
17862.34961 0.190206
17863.98047 0.189147
17865.63086 0.188091
17867.26953 0.187044
17868.91016 0.185996
17870.55078 0.184907
17872.18945 0.183741
17873.83008 0.182574
17875.47070 0.181421
17877.10938 0.180303
17878.75000 0.179186
17880.40039 0.178035
17882.03906 0.176781
17883.67969 0.175527
17885.32031 0.174255
17886.96094 0.172908
17888.60938 0.171561
17890.25000 0.170222
17891.89062 0.168925
17893.53906 0.167627
17895.17969 0.166323
17896.82031 0.164958
17898.47070 0.163591
17900.10938 0.162225
17901.75000 0.160849
17903.40039 0.159473
17905.03906 0.158099
17906.68945 0.156744
17908.33008 0.155389
17909.97070 0.154034
17911.61914 0.152588
17913.25977 0.151139
17914.91016 0.149689
17916.55078 0.148209
17918.19922 0.146726
17919.84961 0.145242
17921.49023 0.143741
17923.14062 0.142236
17924.77930 0.140731
17926.42969 0.139289
17928.07031 0.137854
17929.72070 0.136419
17931.36914 0.13499
17933.00977 0.133564
17934.66016 0.132136
17936.31055 0.130723
17937.96094 0.129314
17939.59961 0.127906
17941.25000 0.126453
17942.90039 0.124989
17944.53906 0.123522
17946.18945 0.122089
17947.83984 0.120669
17949.49023 0.119248
17951.14062 0.11781
17952.78906 0.116365
17954.42969 0.114919
17956.08008 0.11348
17957.73047 0.112042
17959.38086 0.110606
17961.02930 0.109234
17962.67969 0.1079
17964.33008 0.106567
17965.98047 0.105234
17967.63086 0.103901
17969.27930 0.102569
17970.92969 0.101269
17972.58008 0.099994
17974.23047 0.098718
17975.88086 0.097441
17977.52930 0.096167
17979.17969 0.094893
17980.83008 0.093624
17982.48047 0.092357
17984.13086 0.091091
17985.78906 0.089848
17987.43945 0.088632
17989.08984 0.087414
17990.74023 0.08621
17992.39062 0.085024
17994.05078 0.083837
17995.69922 0.082678
17997.34961 0.081555
17999.00000 0.080433
18000.66016 0.079315
18002.31055 0.078203
18003.96094 0.077093
18005.61914 0.075993
18007.26953 0.074912
18008.91992 0.073831
18010.58008 0.072746
18012.23047 0.071651
18013.88086 0.070556
18015.53906 0.069494
18017.18945 0.068499
18018.84961 0.067504
18020.50000 0.066524
18022.16016 0.065576
18023.81055 0.064629
18025.47070 0.063685
18027.11914 0.062748
18028.77930 0.06181
18030.42969 0.060897
18032.08984 0.060051
18033.75000 0.059205
18035.40039 0.05836
18037.06055 0.05752
18038.71094 0.056679
18040.36914 0.055845
18042.02930 0.055029
18043.67969 0.054213
18045.33984 0.053404
18047.00000 0.052626
18048.66016 0.051847
18050.31055 0.051066
18051.97070 0.050272
18053.63086 0.049478
18055.28906 0.048704
18056.93945 0.048016
18058.59961 0.047328
18060.25977 0.046636
18061.91992 0.045914
18063.58008 0.045193
18065.24023 0.044487
18066.89062 0.043875
18068.55078 0.043261
18070.21094 0.042647
18071.86914 0.042021
18073.52930 0.041395
18075.18945 0.040765
18076.84961 0.040106
18078.50977 0.039446
18080.16992 0.038798
18081.83008 0.038259
18083.49023 0.037719
18085.15039 0.037179
18086.81055 0.036644
18088.47070 0.036108
18090.14062 0.035577
18091.80078 0.035096
18093.46094 0.034615
18095.11914 0.034135
18096.77930 0.03366
18098.43945 0.033186
18100.10938 0.032713
18101.76953 0.03225
18103.42969 0.031788
18105.08984 0.031323
18106.75977 0.030825
18108.41992 0.030328
18110.08008 0.029831
18111.74023 0.029363
18113.41016 0.028895
18115.07031 0.028429
18116.73047 0.028008
18118.40039 0.027587
18120.06055 0.027167
18121.73047 0.026808
18123.39062 0.026448
18125.05078 0.02609
18126.72070 0.025754
18128.38086 0.025419
18130.05078 0.025083
18131.71094 0.024726
18133.38086 0.02437
18135.03906 0.024013
18136.71094 0.023664
18138.36914 0.023315
18140.03906 0.022967
18141.71094 0.022649
18143.36914 0.02233
18145.03906 0.022012
18146.69922 0.0217
18148.36914 0.021388
18150.03906 0.021076
18151.69922 0.020738
18153.36914 0.0204
18155.03906 0.020064
18156.71094 0.019784
18158.36914 0.019504
18160.03906 0.019226
18161.71094 0.018983
18163.38086 0.01874
18165.03906 0.018497
18166.71094 0.018225
18168.38086 0.017953
18170.05078 0.017682
18171.72070 0.017427
18173.38086 0.017172
18175.05078 0.01692
18176.72070 0.01672
18178.39062 0.016521
18180.06055 0.016323
18181.73047 0.016127
18183.40039 0.015931
18185.07031 0.015735
18186.74023 0.015532
18188.41016 0.01533
18190.08008 0.015128
18191.75000 0.014928
18193.41992 0.014729
18195.08984 0.014529
18196.75977 0.014321
18198.42969 0.014114
18200.10938 0.013903
18201.77930 0.013653
18203.44922 0.013402
18205.11914 0.013157
18206.78906 0.012985
18208.46094 0.012813
18210.13086 0.012638
18211.81055 0.012429
18213.48047 0.01222
18215.15039 0.012023
18216.82031 0.011949
18218.50000 0.011875
18220.16992 0.01179
18221.83984 0.011606
18223.51953 0.011423
18225.18945 0.011243
18226.86914 0.011095
18228.53906 0.010947
18230.21094 0.010801
18231.89062 0.010669
18233.56055 0.010536
18235.23047 0.010406
18236.91016 0.010294
18238.58008 0.010182
18240.25977 0.010063
18241.92969 0.009905
18243.60938 0.009746
18245.28906 0.009599
18246.96094 0.009511
18248.63086 0.009423
18250.31055 0.009332
18251.99023 0.009223
18253.66016 0.009114
18255.33984 0.009006
18257.01953 0.008903
18258.68945 0.008799
18260.36914 0.008679
18262.05078 0.008499
18263.72070 0.008319
18265.40039 0.008169
18267.08008 0.008112
18268.75977 0.008055
18270.42969 0.007986
18272.10938 0.007879
18273.78906 0.007772
18275.47070 0.007671
18277.14062 0.007582
18278.82031 0.007493
18280.50000 0.007401
18282.17969 0.0073
18283.85938 0.0072
18285.53906 0.007109
18287.22070 0.007039
18288.90039 0.00697
18290.58008 0.00689
18292.25977 0.006789
18293.93945 0.006689
18295.61914 0.006585
18297.28906 0.006475
18298.98047 0.006365
18300.66016 0.006275
18302.33984 0.006216
18304.01953 0.006156
18305.69922 0.006087
18307.38086 0.006007
18309.06055 0.005926
18310.74023 0.005862
18312.41992 0.00582
18314.10938 0.005778
18315.78906 0.005718
18317.47070 0.005637
18319.15039 0.005557
18320.83008 0.005488
18322.51953 0.00543
18324.19922 0.005373
18325.88086 0.00532
18327.56055 0.00527
18329.25000 0.005221
18330.92969 0.005175
18332.60938 0.005134
18334.30078 0.005092
18335.98047 0.005009
18337.66016 0.004896
18339.34961 0.004783
18341.02930 0.004729
18342.72070 0.004713
18344.40039 0.004697
18346.08984 0.004673
18347.76953 0.004646
18349.46094 0.00462
18351.14062 0.004555
18352.83008 0.004473
18354.50977 0.004391
18356.19922 0.004322
18357.88086 0.004258
18359.57031 0.004194
18361.25000 0.00416
18362.93945 0.004136
18364.63086 0.004112
18366.31055 0.004019
18368.00000 0.003905
18369.68945 0.003791
18371.36914 0.003781
18373.06055 0.003794
18374.75000 0.003806
18376.42969 0.003754
18378.11914 0.00369
18379.81055 0.003626
18381.50000 0.003575
18383.18945 0.003526
18384.86914 0.003478
18386.56055 0.003468
18388.25000 0.003461
18389.93945 0.003454
18391.63086 0.003407
18393.32031 0.003359
18395.00977 0.00331
18396.69922 0.003282
18398.38086 0.003254
18400.07031 0.003224
18401.75977 0.003169
18403.44922 0.003113
18405.14062 0.003064
18406.83008 0.003077
18408.51953 0.003091
18410.21094 0.003095
18411.90039 0.003028
18413.59961 0.002962
18415.28906 0.002898
18416.98047 0.002851
18418.66992 0.002803
18420.35938 0.002758
18422.05078 0.002722
18423.74023 0.002686
18425.43945 0.002647
18427.13086 0.002604
18428.82031 0.00256
18430.50977 0.00253
18432.19922 0.002535
18433.90039 0.002539
18435.58984 0.002545
18437.27930 0.002555
18438.97070 0.002566
18440.66992 0.002554
18442.35938 0.00251
18444.05078 0.002466
18445.75000 0.00243
18447.43945 0.002403
18449.14062 0.002377
18450.83008 0.002357
18452.52930 0.002343
18454.22070 0.002328
18455.91016 0.002314
18457.60938 0.002301
18459.30078 0.002287
18461.00000 0.002266
18462.69922 0.002241
18464.39062 0.002216
18466.08984 0.002154
18467.77930 0.002072
18469.48047 0.00199
18471.16992 0.001976
18472.86914 0.001993
18474.57031 0.002009
18476.25977 0.001994
18477.96094 0.001968
18479.66016 0.001942
18481.34961 0.001913
18483.05078 0.001884
18484.75000 0.001854
18486.44922 0.001834
18488.14062 0.001815
18489.83984 0.001797
18491.53906 0.001756
18493.24023 0.001713
18494.93945 0.00167
18496.63086 0.00172
18498.33008 0.001773
18500.02930 0.001825
18501.73047 0.001785
18503.42969 0.001744
18505.13086 0.0017
18506.83008 0.001608
18508.52930 0.001517
18510.23047 0.001442
18511.92969 0.001478
18513.61914 0.001515
18515.33008 0.001546
18517.02930 0.001555
18518.73047 0.001564
18520.42969 0.001557
18522.13086 0.001501
18523.83008 0.001445
18525.52930 0.001412
18527.23047 0.001429
18528.92969 0.001447
18530.63086 0.00144
18532.33984 0.001392
18534.03906 0.001343
18535.74023 0.001336
18537.43945 0.001383
18539.14062 0.001429
18540.84961 0.001428
18542.55078 0.001377
18544.25000 0.001326
18545.96094 0.001284
18547.66016 0.001249
18549.35938 0.001214
18551.06055 0.001219
18552.76953 0.001248
18554.47070 0.001277
18556.17969 0.001282
18557.88086 0.001276
18559.58008 0.00127
18561.28906 0.00124
18562.99023 0.001202
18564.69922 0.001164
18566.40039 0.001135
18568.10938 0.001107
18569.81055 0.001079
18571.51953 0.001048
18573.22070 0.001016
18574.92969 0.000984
18576.63086 0.001005
18578.33984 0.001029
18580.05078 0.001052
18581.75000 0.001048
18583.46094 0.001044
18585.16992 0.00104
18586.86914 0.001033
18588.58008 0.001025
18590.28906 0.001018
18591.99023 0.001012
18593.69922 0.001006
18595.41016 0.000999
18597.11914 0.000992
18598.82031 0.000984
18600.52930 0.000979
18602.24023 0.000978
18603.94922 0.000977
18605.66016 0.000969
18607.35938 0.000948
18609.07031 0.000927
18610.77930 0.000922
18612.49023 0.000934
18614.19922 0.000946
18615.91016 0.000924
18617.61914 0.000871
18619.33008 0.000818
18621.03906 0.000799
18622.75000 0.000802
18624.46094 0.000804
18626.16992 0.000807
18627.88086 0.00081
18629.58984 0.000812
18631.30078 0.000817
18633.00977 0.000823
18634.72070 0.000829
18636.42969 0.000806
18638.14062 0.000778
18639.85938 0.00075
18641.57031 0.000762
18643.27930 0.000779
18644.99023 0.000795
18646.71094 0.000775
18648.41992 0.000755
18650.13086 0.000737
18651.83984 0.000734
18653.55078 0.000732
18655.26953 0.00073
18656.98047 0.000735
18658.68945 0.00074
18660.41016 0.000741
18662.11914 0.000728
18663.83008 0.000715
18665.55078 0.000712
18667.25977 0.000729
18668.98047 0.000747
18670.68945 0.00075
18672.41016 0.000729
18674.11914 0.000709
18675.83984 0.000665
18677.55078 0.000595
18679.26953 0.000526
18680.98047 0.000533
18682.69922 0.000597
18684.41016 0.000662
18686.13086 0.000708
18687.83984 0.000746
18689.56055 0.000783
18691.27930 0.000749
18692.99023 0.000691
18694.71094 0.000632
18696.42969 0.000603
18698.14062 0.000579
18699.85938 0.000555
18701.58008 0.000572
18703.28906 0.000594
18705.00977 0.000614
18706.73047 0.000541
18708.44922 0.000467
18710.16992 0.000405
18711.88086 0.000452
18713.59961 0.000498
18715.32031 0.000538
18717.03906 0.000543
18718.75977 0.000549
18720.48047 0.000547
18722.19922 0.000523
18723.91992 0.0005
18725.63086 0.000478
18727.34961 0.000458
18729.07031 0.000437
18730.78906 0.000434
18732.50977 0.000452
18734.23047 0.00047
18735.96094 0.000458
18737.67969 0.00042
20611.44727 0.0
