# %ECSV 0.9
# ---
# datatype:
# - {name: wavelength, unit: Angstrom, datatype: float32}
# - {name: response, datatype: float32}
# meta: !!omap
# - {band_name: F145M}
# - {group_name: NICMOS1}
wavelength response
11842.44238 0.0
13158.26953 0.000401
13158.71973 0.000402
13159.17969 0.000404
13159.63965 0.000406
13160.09961 0.000408
13160.55957 0.000411
13161.01953 0.000414
13161.48047 0.000417
13161.94043 0.000421
13162.40039 0.000424
13162.86035 0.000427
13163.30957 0.000431
13163.76953 0.000434
13164.23047 0.000437
13164.69043 0.00044
13165.15039 0.000443
13165.61035 0.000444
13166.07031 0.000445
13166.53027 0.000446
13166.99023 0.000447
13167.45020 0.000448
13167.91016 0.000449
13168.37012 0.00045
13168.82031 0.000451
13169.28027 0.000452
13169.74023 0.000453
13170.20020 0.000456
13170.66016 0.000459
13171.12012 0.000462
13171.58008 0.000465
13172.04004 0.000469
13172.50000 0.000472
13172.95996 0.000475
13173.41992 0.000479
13173.87988 0.000482
13174.33984 0.000485
13174.79980 0.000489
13175.25977 0.000491
13175.70996 0.000493
13176.16992 0.000494
13176.62988 0.000496
13177.08984 0.000497
13177.54980 0.000499
13178.00977 0.0005
13178.46973 0.000502
13178.92969 0.000503
13179.38965 0.000505
13179.84961 0.000506
13180.30957 0.000509
13180.76953 0.000512
13181.23047 0.000515
13181.69043 0.000518
13182.15039 0.000521
13182.61035 0.000525
13183.07031 0.000528
13183.53027 0.000531
13183.99023 0.000534
13184.45020 0.000537
13184.91016 0.00054
13185.37012 0.000541
13185.83008 0.00054
13186.29004 0.00054
13186.75000 0.00054
13187.20996 0.000539
13187.66992 0.000539
13188.12988 0.000539
13188.58984 0.000538
13189.04980 0.000538
13189.50977 0.000538
13189.96973 0.000537
13190.42969 0.000543
13190.88965 0.000548
13191.34961 0.000554
13191.80957 0.00056
13192.26953 0.000565
13192.73047 0.000571
13193.19043 0.000577
13193.65039 0.000582
13194.11035 0.000588
13194.57031 0.000594
13195.03027 0.000599
13195.49023 0.000604
13195.95020 0.00061
13196.41016 0.000615
13196.87012 0.00062
13197.33008 0.000625
13197.79004 0.000631
13198.25000 0.000636
13198.70996 0.000641
13199.16992 0.000647
13199.62988 0.000652
13200.08984 0.000656
13200.54980 0.000657
13201.00977 0.000657
13201.46973 0.000658
13201.92969 0.000658
13202.38965 0.000658
13202.84961 0.000659
13203.32031 0.000659
13203.78027 0.00066
13204.24023 0.00066
13204.70020 0.000661
13205.16016 0.000663
13205.62012 0.000667
13206.08008 0.000672
13206.54004 0.000677
13207.00000 0.000681
13207.45996 0.000686
13207.91992 0.00069
13208.37988 0.000695
13208.83984 0.0007
13209.29980 0.000704
13209.75977 0.000709
13210.21973 0.000714
13210.67969 0.00072
13211.15039 0.000726
13211.61035 0.000731
13212.07031 0.000737
13212.53027 0.000743
13212.99023 0.000749
13213.45020 0.000755
13213.91016 0.00076
13214.37012 0.000766
13214.83008 0.000772
13215.29004 0.000775
13215.75000 0.000778
13216.20996 0.00078
13216.67969 0.000782
13217.13965 0.000784
13217.59961 0.000787
13218.05957 0.000789
13218.51953 0.000791
13218.98047 0.000793
13219.44043 0.000796
13219.90039 0.000798
13220.36035 0.000802
13220.83008 0.000807
13221.29004 0.000812
13221.75000 0.000816
13222.20996 0.000821
13222.66992 0.000826
13223.12988 0.000831
13223.58984 0.000836
13224.04980 0.00084
13224.50977 0.000845
13224.98047 0.00085
13225.44043 0.000854
13225.90039 0.000859
13226.36035 0.000863
13226.82031 0.000867
13227.28027 0.000872
13227.74023 0.000876
13228.20020 0.00088
13228.66992 0.000885
13229.12988 0.000889
13229.58984 0.000893
13230.04980 0.000897
13230.50977 0.000901
13230.96973 0.000905
13231.42969 0.000909
13231.90039 0.000913
13232.36035 0.000917
13232.82031 0.000921
13233.28027 0.000925
13233.74023 0.000929
13234.20020 0.000933
13234.66992 0.000937
13235.12988 0.000942
13235.58984 0.00095
13236.04980 0.000958
13236.50977 0.000965
13236.96973 0.000973
13237.42969 0.000981
13237.90039 0.000989
13238.36035 0.000997
13238.82031 0.001005
13239.28027 0.001013
13239.74023 0.001021
13240.20996 0.001028
13240.66992 0.001033
13241.12988 0.001038
13241.58984 0.001043
13242.04980 0.001048
13242.50977 0.001053
13242.98047 0.001058
13243.44043 0.001063
13243.90039 0.001068
13244.36035 0.001073
13244.82031 0.001078
13245.29004 0.001084
13245.75000 0.001092
13246.20996 0.001099
13246.66992 0.001106
13247.12988 0.001113
13247.58984 0.001121
13248.05957 0.001128
13248.51953 0.001135
13248.98047 0.001142
13249.44043 0.00115
13249.91016 0.001157
13250.37012 0.001162
13250.83008 0.001167
13251.29004 0.001172
13251.75000 0.001177
13252.21973 0.001182
13252.67969 0.001187
13253.13965 0.001192
13253.59961 0.001197
13254.05957 0.001202
13254.53027 0.001207
13254.99023 0.001212
13255.45020 0.001219
13255.91016 0.001226
13256.37988 0.001232
13256.83984 0.001239
13257.29980 0.001246
13257.75977 0.001253
13258.23047 0.00126
13258.69043 0.001267
13259.15039 0.001274
13259.61035 0.001281
13260.08008 0.001288
13260.54004 0.001297
13261.00000 0.001305
13261.45996 0.001314
13261.92969 0.001323
13262.38965 0.001332
13262.84961 0.001341
13263.30957 0.00135
13263.78027 0.001359
13264.24023 0.001368
13264.70020 0.001376
13265.16016 0.001385
13265.62988 0.001393
13266.08984 0.001401
13266.54980 0.001409
13267.00977 0.001417
13267.48047 0.001425
13267.94043 0.001433
13268.40039 0.001441
13268.87012 0.001449
13269.33008 0.001457
13269.79004 0.001465
13270.25000 0.001474
13270.71973 0.001484
13271.17969 0.001493
13271.63965 0.001503
13272.09961 0.001512
13272.57031 0.001522
13273.03027 0.001531
13273.49023 0.001541
13273.95996 0.00155
13274.41992 0.00156
13274.87988 0.00157
13275.34961 0.00158
13275.80957 0.001591
13276.26953 0.001602
13276.73047 0.001613
13277.20020 0.001623
13277.66016 0.001634
13278.12012 0.001645
13278.58984 0.001656
13279.04980 0.001667
13279.50977 0.001678
13279.98047 0.001689
13280.44043 0.001699
13280.90039 0.001709
13281.37012 0.00172
13281.83008 0.00173
13282.29004 0.00174
13282.75000 0.001751
13283.21973 0.001761
13283.67969 0.001772
13284.15039 0.001782
13284.61035 0.001792
13285.07031 0.001803
13285.54004 0.001813
13286.00000 0.001823
13286.45996 0.001834
13286.91992 0.001844
13287.38965 0.001854
13287.84961 0.001864
13288.32031 0.001875
13288.78027 0.001885
13289.24023 0.001895
13289.70996 0.001905
13290.16992 0.001916
13290.62988 0.001928
13291.09961 0.001939
13291.55957 0.001951
13292.01953 0.001962
13292.49023 0.001974
13292.95020 0.001985
13293.41016 0.001997
13293.87988 0.002008
13294.33984 0.00202
13294.80957 0.002031
13295.26953 0.002044
13295.73047 0.002056
13296.20020 0.002069
13296.66016 0.002082
13297.12012 0.002095
13297.58984 0.002108
13298.04980 0.002121
13298.50977 0.002134
13298.98047 0.002147
13299.44043 0.00216
13299.91016 0.002172
13300.37012 0.002186
13300.83008 0.002201
13301.29980 0.002215
13301.75977 0.002229
13302.23047 0.002244
13302.69043 0.002258
13303.15039 0.002272
13303.62012 0.002286
13304.08008 0.002301
13304.54980 0.002315
13305.00977 0.002329
13305.46973 0.002346
13305.94043 0.002363
13306.40039 0.00238
13306.87012 0.002397
13307.33008 0.002413
13307.79004 0.00243
13308.25977 0.002447
13308.71973 0.002464
13309.19043 0.002481
13309.65039 0.002497
13310.12012 0.002514
13310.58008 0.00253
13311.04004 0.002546
13311.50977 0.002563
13311.96973 0.002579
13312.44043 0.002595
13312.90039 0.002611
13313.37012 0.002627
13313.83008 0.002643
13314.29004 0.00266
13314.75977 0.002676
13315.21973 0.002692
13315.69043 0.002709
13316.15039 0.002725
13316.62012 0.002742
13317.08008 0.002759
13317.54004 0.002775
13318.00977 0.002792
13318.46973 0.002809
13318.94043 0.002825
13319.40039 0.002842
13319.87012 0.002858
13320.33008 0.002879
13320.79980 0.002902
13321.25977 0.002924
13321.73047 0.002947
13322.19043 0.002969
13322.65039 0.002991
13323.12012 0.003014
13323.58008 0.003036
13324.04980 0.003059
13324.50977 0.003081
13324.98047 0.003104
13325.44043 0.003124
13325.91016 0.003144
13326.37012 0.003164
13326.83984 0.003185
13327.29980 0.003205
13327.76953 0.003225
13328.23047 0.003245
13328.70020 0.003266
13329.16016 0.003286
13329.62988 0.003306
13330.08984 0.003327
13330.55957 0.003351
13331.01953 0.003376
13331.49023 0.0034
13331.95020 0.003424
13332.41992 0.003449
13332.87988 0.003473
13333.34961 0.003497
13333.80957 0.003522
13334.28027 0.003546
13334.74023 0.00357
13335.20996 0.003595
13335.66992 0.003621
13336.13965 0.003647
13336.59961 0.003672
13337.07031 0.003698
13337.53027 0.003724
13338.00000 0.00375
13338.45996 0.003776
13338.92969 0.003801
13339.38965 0.003827
13339.86035 0.003853
13340.32031 0.003879
13340.79004 0.003905
13341.25000 0.003931
13341.71973 0.003957
13342.17969 0.003983
13342.65039 0.004009
13343.11035 0.004035
13343.58008 0.004062
13344.04004 0.004088
13344.50977 0.004114
13344.98047 0.00414
13345.44043 0.004169
13345.91016 0.004199
13346.37012 0.004229
13346.83984 0.004259
13347.29980 0.004288
13347.76953 0.004318
13348.23047 0.004348
13348.70020 0.004378
13349.16992 0.004407
13349.62988 0.004437
13350.09961 0.004468
13350.55957 0.0045
13351.03027 0.004532
13351.49023 0.004565
13351.95996 0.004597
13352.41992 0.00463
13352.88965 0.004663
13353.36035 0.004695
13353.82031 0.004728
13354.29004 0.00476
13354.75000 0.004793
13355.21973 0.004826
13355.67969 0.004861
13356.15039 0.004896
13356.62012 0.004931
13357.08008 0.004966
13357.54980 0.005001
13358.00977 0.005036
13358.48047 0.005072
13358.95020 0.005107
13359.41016 0.005142
13359.87988 0.005177
13360.33984 0.005215
13360.80957 0.005253
13361.28027 0.005292
13361.74023 0.005331
13362.20996 0.00537
13362.66992 0.005409
13363.13965 0.005448
13363.61035 0.005486
13364.07031 0.005525
13364.54004 0.005564
13365.00000 0.005603
13365.46973 0.005648
13365.94043 0.005692
13366.40039 0.005737
13366.87012 0.005781
13367.33008 0.005826
13367.79980 0.005871
13368.26953 0.005915
13368.73047 0.00596
13369.20020 0.006004
13369.66992 0.006049
13370.12988 0.006094
13370.59961 0.006142
13371.05957 0.00619
13371.53027 0.006238
13372.00000 0.006286
13372.45996 0.006334
13372.92969 0.006382
13373.40039 0.006429
13373.86035 0.006477
13374.33008 0.006525
13374.79980 0.006573
13375.25977 0.006621
13375.73047 0.006669
13376.20020 0.006717
13376.66016 0.006765
13377.12988 0.006812
13377.58984 0.00686
13378.05957 0.006908
13378.53027 0.006956
13379.00000 0.007004
13379.45996 0.007052
13379.92969 0.0071
13380.38965 0.007153
13380.86035 0.007207
13381.33008 0.007261
13381.79004 0.007314
13382.25977 0.007368
13382.73047 0.007422
13383.20020 0.007476
13383.66016 0.00753
13384.12988 0.007584
13384.58984 0.007638
13385.05957 0.007693
13385.53027 0.007751
13386.00000 0.00781
13386.45996 0.007869
13386.92969 0.007928
13387.40039 0.007987
13387.86035 0.008046
13388.33008 0.008105
13388.79980 0.008163
13389.25977 0.008222
13389.73047 0.008281
13390.20020 0.008344
13390.66992 0.008412
13391.12988 0.00848
13391.59961 0.008547
13392.07031 0.008615
13392.53027 0.008683
13393.00000 0.008751
13393.46973 0.008819
13393.92969 0.008887
13394.40039 0.008955
13394.87012 0.009023
13395.33984 0.009095
13395.79980 0.00917
13396.26953 0.009245
13396.74023 0.00932
13397.20996 0.009395
13397.66992 0.00947
13398.13965 0.009545
13398.61035 0.00962
13399.07031 0.009695
13399.54004 0.00977
13400.00977 0.009845
13400.48047 0.009927
13400.94043 0.010009
13401.41016 0.010092
13401.87988 0.010174
13402.34961 0.010256
13402.80957 0.010338
13403.28027 0.010421
13403.75000 0.010503
13404.20996 0.010585
13404.67969 0.010668
13405.15039 0.010751
13405.62012 0.010836
13406.08008 0.01092
13406.54980 0.011004
13407.01953 0.011089
13407.49023 0.011174
13407.95996 0.011258
13408.41992 0.011343
13408.88965 0.011427
13409.36035 0.011512
13409.83008 0.011597
13410.29004 0.011685
13410.75977 0.011777
13411.23047 0.011868
13411.70020 0.01196
13412.16992 0.012051
13412.62988 0.012142
13413.09961 0.012234
13413.57031 0.012325
13414.04004 0.012417
13414.50000 0.012508
13414.96973 0.0126
13415.44043 0.012702
13415.91016 0.012804
13416.37012 0.012907
13416.83984 0.013009
13417.30957 0.013112
13417.78027 0.013215
13418.25000 0.013317
13418.70996 0.01342
13419.17969 0.013522
13419.65039 0.013625
13420.12012 0.01373
13420.58984 0.013843
13421.05957 0.013955
13421.51953 0.014068
13421.99023 0.01418
13422.45996 0.014293
13422.92969 0.014405
13423.40039 0.014518
13423.86035 0.01463
13424.33008 0.014743
13424.79980 0.014856
13425.26953 0.014977
13425.74023 0.015106
13426.20996 0.015235
13426.66992 0.015364
13427.13965 0.015493
13427.61035 0.015621
13428.08008 0.01575
13428.54980 0.015879
13429.00977 0.016008
13429.48047 0.016137
13429.95020 0.016266
13430.41992 0.01641
13430.88965 0.016557
13431.36035 0.016703
13431.83008 0.016849
13432.29004 0.016996
13432.75977 0.017142
13433.23047 0.017288
13433.70020 0.017435
13434.16992 0.017581
13434.63965 0.017727
13435.09961 0.017874
13435.57031 0.018021
13436.04004 0.018169
13436.50977 0.018316
13436.98047 0.018463
13437.45020 0.01861
13437.91992 0.018757
13438.37988 0.018904
13438.84961 0.019052
13439.32031 0.019199
13439.79004 0.019347
13440.25977 0.019502
13440.73047 0.019664
13441.20020 0.019827
13441.66992 0.019989
13442.12988 0.020151
13442.59961 0.020314
13443.07031 0.020476
13443.54004 0.020638
13444.00977 0.020801
13444.48047 0.020964
13444.95020 0.021126
13445.41992 0.0213
13445.88965 0.021475
13446.34961 0.021651
13446.82031 0.021826
13447.29004 0.022002
13447.75977 0.022177
13448.23047 0.022353
13448.70020 0.022529
13449.16992 0.022704
13449.63965 0.02288
13450.11035 0.02306
13450.58008 0.023253
13451.04004 0.023446
13451.50977 0.023639
13451.98047 0.023832
13452.45020 0.024025
13452.91992 0.024218
13453.38965 0.024411
13453.86035 0.024604
13454.33008 0.024797
13454.79980 0.024991
13455.26953 0.025194
13455.74023 0.025406
13456.20996 0.025619
13456.67969 0.02583
13457.15039 0.026043
13457.61035 0.026254
13458.08008 0.026467
13458.54980 0.026679
13459.01953 0.026891
13459.49023 0.027103
13459.95996 0.027316
13460.42969 0.027554
13460.90039 0.027794
13461.37012 0.028035
13461.83984 0.028275
13462.30957 0.028515
13462.78027 0.028756
13463.25000 0.028997
13463.71973 0.029238
13464.19043 0.029478
13464.66016 0.029719
13465.12988 0.029965
13465.59961 0.030225
13466.07031 0.030486
13466.54004 0.030746
13467.00000 0.031006
13467.46973 0.031267
13467.94043 0.031527
13468.41016 0.031788
13468.87988 0.032049
13469.34961 0.032309
13469.82031 0.03257
13470.29004 0.032831
13470.75977 0.033093
13471.23047 0.033355
13471.70020 0.033616
13472.16992 0.033878
13472.63965 0.03414
13473.11035 0.034403
13473.58008 0.034665
13474.04980 0.034927
13474.51953 0.035189
13474.99023 0.035451
13475.45996 0.035738
13475.92969 0.036025
13476.40039 0.036313
13476.87012 0.0366
13477.33984 0.036888
13477.80957 0.037175
13478.28027 0.037463
13478.75000 0.037751
13479.21973 0.038039
13479.69043 0.038327
13480.16016 0.038623
13480.62988 0.038933
13481.09961 0.039245
13481.57031 0.039556
13482.04004 0.039867
13482.50977 0.040178
13482.98047 0.04049
13483.45020 0.040801
13483.91992 0.041113
13484.38965 0.041424
13484.86035 0.041736
13485.33008 0.042066
13485.79980 0.042403
13486.28027 0.042741
13486.75000 0.043078
13487.21973 0.043416
13487.69043 0.043754
13488.16016 0.044091
13488.62988 0.044429
13489.09961 0.044767
13489.57031 0.045105
13490.04004 0.045445
13490.50977 0.045805
13490.98047 0.046165
13491.45020 0.046525
13491.91992 0.046886
13492.38965 0.047245
13492.86035 0.047606
13493.33008 0.047966
13493.79980 0.048327
13494.26953 0.048688
13494.74023 0.049048
13495.20996 0.049424
13495.69043 0.049818
13496.16016 0.050212
13496.62988 0.050605
13497.09961 0.050999
13497.57031 0.051393
13498.04004 0.051788
13498.50977 0.052182
13498.98047 0.052576
13499.45020 0.05297
13499.91992 0.053364
13500.38965 0.05376
13500.86035 0.054157
13501.33008 0.054553
13501.80957 0.05495
13502.28027 0.055346
13502.75000 0.055742
13503.21973 0.056139
13503.69043 0.056536
13504.16016 0.056932
13504.62988 0.057329
13505.09961 0.057725
13505.57031 0.058117
13506.04004 0.05851
13506.51953 0.058903
13506.99023 0.059295
13507.45996 0.059687
13507.92969 0.06008
13508.40039 0.060473
13508.87012 0.060866
13509.33984 0.061259
13509.80957 0.061652
13510.28027 0.062068
13510.75977 0.062501
13511.23047 0.062933
13511.70020 0.063366
13512.16992 0.063798
13512.63965 0.064231
13513.11035 0.064663
13513.58008 0.065096
13514.04980 0.065529
13514.53027 0.065962
13515.00000 0.066395
13515.46973 0.066828
13515.94043 0.067262
13516.41016 0.067695
13516.87988 0.068129
13517.34961 0.068563
13517.83008 0.068997
13518.29980 0.069431
13518.76953 0.069865
13519.24023 0.070298
13519.70996 0.070733
13520.17969 0.071176
13520.65039 0.071633
13521.12988 0.07209
13521.59961 0.072547
13522.07031 0.073005
13522.54004 0.073462
13523.00977 0.073918
13523.48047 0.074376
13523.95996 0.074834
13524.42969 0.075291
13524.90039 0.075749
13525.37012 0.076224
13525.83984 0.076703
13526.30957 0.077184
13526.79004 0.077663
13527.25977 0.078143
13527.73047 0.078623
13528.20020 0.079102
13528.66992 0.079582
13529.13965 0.080062
13529.62012 0.080542
13530.08984 0.081017
13530.55957 0.081465
13531.03027 0.081913
13531.50000 0.082361
13531.98047 0.082811
13532.45020 0.083259
13532.91992 0.083707
13533.38965 0.084156
13533.86035 0.084605
13534.33984 0.085054
13534.80957 0.085502
13535.28027 0.085955
13535.75000 0.086409
13536.21973 0.086864
13536.70020 0.087318
13537.16992 0.087772
13537.63965 0.088227
13538.11035 0.088681
13538.58008 0.089137
13539.05957 0.089591
13539.53027 0.090047
13540.00000 0.090502
13540.46973 0.090945
13540.95020 0.091389
13541.41992 0.091831
13541.88965 0.092275
13542.36035 0.092718
13542.83008 0.093162
13543.30957 0.093607
13543.78027 0.09405
13544.25000 0.094494
13544.71973 0.094938
13545.20020 0.095381
13545.66992 0.09582
13546.13965 0.09626
13546.61035 0.096701
13547.08984 0.097141
13547.55957 0.097581
13548.03027 0.098021
13548.50000 0.098462
13548.98047 0.098902
13549.45020 0.099343
13549.91992 0.099783
13550.38965 0.100217
13550.87012 0.10065
13551.33984 0.101083
13551.80957 0.101515
13552.29004 0.101948
13552.75977 0.102381
13553.23047 0.102814
13553.70020 0.103247
13554.17969 0.103679
13554.65039 0.104112
13555.12012 0.104542
13555.58984 0.10496
13556.07031 0.105378
13556.54004 0.105796
13557.00977 0.106215
13557.49023 0.106634
13557.95996 0.107052
13558.42969 0.107471
13558.90039 0.107889
13559.37988 0.108308
13559.84961 0.108728
13560.32031 0.109125
13560.79004 0.109512
13561.26953 0.1099
13561.74023 0.110287
13562.20996 0.110674
13562.69043 0.111062
13563.16016 0.11145
13563.62988 0.111837
13564.11035 0.112226
13564.58008 0.112613
13565.04980 0.112994
13565.53027 0.113315
13566.00000 0.113635
13566.46973 0.113957
13566.94043 0.114277
13567.41992 0.114599
13567.88965 0.11492
13568.36035 0.115241
13568.83984 0.115562
13569.30957 0.115883
13569.78027 0.116205
13570.25977 0.116516
13570.73047 0.116819
13571.20020 0.117123
13571.67969 0.117426
13572.15039 0.11773
13572.62012 0.118033
13573.09961 0.118337
13573.57031 0.11864
13574.04004 0.118944
13574.51953 0.119248
13574.99023 0.119552
13575.45996 0.119827
13575.94043 0.1201
13576.41016 0.120375
13576.87988 0.120649
13577.36035 0.120924
13577.83008 0.121198
13578.30957 0.121473
13578.78027 0.121747
13579.25000 0.122022
13579.73047 0.122297
13580.20020 0.122567
13580.66992 0.122833
13581.15039 0.123098
13581.62012 0.123364
13582.08984 0.123629
13582.57031 0.123895
13583.04004 0.12416
13583.51953 0.124426
13583.99023 0.124691
13584.45996 0.124957
13584.94043 0.125223
13585.41016 0.12546
13585.87988 0.125693
13586.36035 0.125926
13586.83008 0.126159
13587.30957 0.126391
13587.78027 0.126625
13588.25000 0.126858
13588.73047 0.12709
13589.20020 0.127324
13589.67969 0.127557
13590.15039 0.12778
13590.62012 0.127981
13591.09961 0.128183
13591.57031 0.128384
13592.04980 0.128585
13592.51953 0.128787
13592.99023 0.128988
13593.46973 0.12919
13593.94043 0.129391
13594.41992 0.129593
13594.88965 0.129794
13595.36035 0.129967
13595.83984 0.130131
13596.30957 0.130296
13596.79004 0.13046
13597.25977 0.130624
13597.74023 0.130789
13598.20996 0.130953
13598.67969 0.131118
13599.16016 0.131282
13599.62988 0.131447
13600.11035 0.131605
13600.58008 0.131744
13601.04980 0.131883
13601.53027 0.132022
13602.00000 0.132161
13602.48047 0.1323
13602.95020 0.132439
13603.42969 0.132578
13603.90039 0.132717
13604.37988 0.132857
13604.84961 0.132996
13605.33008 0.133121
13605.79980 0.133241
13606.26953 0.13336
13606.75000 0.133479
13607.21973 0.133599
13607.70020 0.133718
13608.16992 0.133838
13608.65039 0.133957
13609.12012 0.134077
13609.59961 0.134196
13610.07031 0.134313
13610.54980 0.134412
13611.01953 0.134511
13611.50000 0.134609
13611.96973 0.134708
13612.44043 0.134807
13612.91992 0.134906
13613.38965 0.135005
13613.87012 0.135104
13614.33984 0.135203
13614.82031 0.135302
13615.29004 0.135387
13615.76953 0.135462
13616.24023 0.135538
13616.71973 0.135613
13617.19043 0.135688
13617.66992 0.135764
13618.13965 0.135839
13618.62012 0.135915
13619.08984 0.13599
13619.57031 0.136066
13620.04004 0.136141
13620.51953 0.136207
13620.99023 0.136273
13621.46973 0.136339
13621.94043 0.136405
13622.41992 0.136471
13622.88965 0.136538
13623.37012 0.136604
13623.83984 0.13667
13624.32031 0.136736
13624.79004 0.136802
13625.26953 0.136853
13625.74023 0.136892
13626.21973 0.136931
13626.69043 0.13697
13627.16992 0.137009
13627.63965 0.137048
13628.12012 0.137087
13628.59961 0.137126
13629.07031 0.137164
13629.54980 0.137204
13630.01953 0.137242
13630.50000 0.137273
13630.96973 0.137305
13631.45020 0.137336
13631.91992 0.137367
13632.40039 0.137398
13632.87012 0.13743
13633.34961 0.137461
13633.82031 0.137492
13634.29980 0.137523
13634.78027 0.137555
13635.25000 0.137579
13635.73047 0.137597
13636.20020 0.137616
13636.67969 0.137634
13637.15039 0.137652
13637.62988 0.137671
13638.09961 0.137689
13638.58008 0.137707
13639.05957 0.137725
13639.53027 0.137744
13640.00977 0.137762
13640.48047 0.137773
13640.95996 0.137783
13641.42969 0.137794
13641.91016 0.137804
13642.38965 0.137815
13642.86035 0.137825
13643.33984 0.137836
13643.80957 0.137847
13644.29004 0.137857
13644.76953 0.137868
13645.24023 0.137875
13645.71973 0.137878
13646.19043 0.137881
13646.66992 0.137885
13647.13965 0.137888
13647.62012 0.137891
13648.09961 0.137895
13648.57031 0.137898
13649.04980 0.137901
13649.53027 0.137904
13650.00000 0.137908
13650.48047 0.137914
13650.95020 0.137921
13651.42969 0.137927
13651.91016 0.137933
13652.37988 0.13794
13652.86035 0.137946
13653.33008 0.137953
13653.80957 0.137959
13654.29004 0.137966
13654.75977 0.137972
13655.24023 0.137974
13655.70996 0.13797
13656.19043 0.137966
13656.66992 0.137963
13657.13965 0.137959
13657.62012 0.137955
13658.09961 0.137952
13658.57031 0.137948
13659.04980 0.137944
13659.53027 0.13794
13660.00000 0.137937
13660.48047 0.137932
13660.95996 0.137928
13661.42969 0.137924
13661.91016 0.13792
13662.37988 0.137915
13662.86035 0.137911
13663.33984 0.137907
13663.80957 0.137903
13664.29004 0.137898
13664.76953 0.137894
13665.24023 0.13789
13665.71973 0.137886
13666.20020 0.137882
13666.66992 0.137878
13667.15039 0.137874
13667.62988 0.13787
13668.09961 0.137866
13668.58008 0.137862
13669.05957 0.137858
13669.53027 0.137854
13670.00977 0.13785
13670.49023 0.137845
13670.95996 0.137839
13671.44043 0.137834
13671.91992 0.137829
13672.38965 0.137823
13672.87012 0.137818
13673.34961 0.137813
13673.82031 0.137807
13674.29980 0.137802
13674.78027 0.137797
13675.25977 0.137789
13675.73047 0.137779
13676.20996 0.13777
13676.69043 0.13776
13677.16016 0.13775
13677.63965 0.13774
13678.12012 0.13773
13678.58984 0.13772
13679.07031 0.137711
13679.54980 0.137701
13680.03027 0.137691
13680.50000 0.137686
13680.98047 0.13768
13681.45996 0.137675
13681.92969 0.13767
13682.41016 0.137664
13682.88965 0.137659
13683.37012 0.137654
13683.83984 0.137648
13684.32031 0.137643
13684.79980 0.137637
13685.26953 0.13763
13685.75000 0.137621
13686.23047 0.137612
13686.70996 0.137603
13687.17969 0.137594
13687.66016 0.137585
13688.13965 0.137577
13688.62012 0.137568
13689.08984 0.137559
13689.57031 0.13755
13690.04980 0.137541
13690.53027 0.137533
13691.00000 0.137525
13691.48047 0.137518
13691.95996 0.13751
13692.44043 0.137502
13692.91016 0.137494
13693.38965 0.137486
13693.87012 0.137479
13694.34961 0.137471
13694.82031 0.137463
13695.29980 0.13746
13695.78027 0.137459
13696.25977 0.137457
13696.73047 0.137456
13697.20996 0.137455
13697.69043 0.137454
13698.16992 0.137453
13698.65039 0.137452
13699.12012 0.137451
13699.59961 0.13745
13700.08008 0.137449
13700.55957 0.137445
13701.03027 0.137441
13701.50977 0.137437
13701.99023 0.137434
13702.46973 0.13743
13702.95020 0.137426
13703.41992 0.137423
13703.90039 0.137419
13704.37988 0.137415
13704.86035 0.137411
13705.33984 0.137409
13705.80957 0.137407
13706.29004 0.137405
13706.76953 0.137403
13707.25000 0.137401
13707.73047 0.1374
13708.20020 0.137398
13708.67969 0.137396
13709.16016 0.137394
13709.63965 0.137392
13710.12012 0.137391
13710.58984 0.137396
13711.07031 0.1374
13711.54980 0.137404
13712.03027 0.137408
13712.50977 0.137412
13712.99023 0.137416
13713.45996 0.13742
13713.94043 0.137424
13714.41992 0.137429
13714.90039 0.137433
13715.37988 0.137434
13715.86035 0.137435
13716.33008 0.137437
13716.80957 0.137438
13717.29004 0.137439
13717.76953 0.13744
13718.25000 0.137441
13718.73047 0.137442
13719.20020 0.137443
13719.67969 0.137444
13720.16016 0.137446
13720.63965 0.137452
13721.12012 0.137457
13721.59961 0.137462
13722.08008 0.137467
13722.54980 0.137472
13723.03027 0.137478
13723.50977 0.137483
13723.99023 0.137488
13724.46973 0.137493
13724.95020 0.137499
13725.42969 0.137501
13725.90039 0.137504
13726.37988 0.137506
13726.86035 0.137508
13727.33984 0.137511
13727.82031 0.137513
13728.29980 0.137515
13728.78027 0.137517
13729.25977 0.13752
13729.73047 0.137522
13730.20996 0.137526
13730.69043 0.137533
13731.16992 0.13754
13731.65039 0.137547
13732.12988 0.137554
13732.61035 0.137561
13733.08984 0.137568
13733.57031 0.137575
13734.04004 0.137581
13734.51953 0.137588
13735.00000 0.137595
13735.48047 0.137603
13735.95996 0.137611
13736.44043 0.137618
13736.91992 0.137626
13737.40039 0.137634
13737.87988 0.137641
13738.36035 0.137649
13738.83008 0.137657
13739.30957 0.137664
13739.79004 0.137672
13740.26953 0.137681
13740.75000 0.137692
13741.23047 0.137702
13741.70996 0.137713
13742.19043 0.137723
13742.66992 0.137734
13743.15039 0.137744
13743.62988 0.137755
13744.11035 0.137765
13744.58984 0.137776
13745.07031 0.137786
13745.54004 0.137793
13746.01953 0.1378
13746.50000 0.137806
13746.98047 0.137813
13747.45996 0.13782
13747.94043 0.137827
13748.41992 0.137834
13748.90039 0.137841
13749.37988 0.137848
13749.86035 0.137855
13750.33984 0.137865
13750.82031 0.137877
13751.29980 0.137888
13751.78027 0.1379
13752.25977 0.137912
13752.74023 0.137924
13753.21973 0.137935
13753.70020 0.137947
13754.17969 0.137958
13754.66016 0.13797
13755.13965 0.137982
13755.62012 0.137995
13756.09961 0.138008
13756.58008 0.138021
13757.05957 0.138034
13757.54004 0.138047
13758.00977 0.138061
13758.50000 0.138074
13758.96973 0.138087
13759.45020 0.1381
13759.92969 0.138113
13760.41016 0.138128
13760.88965 0.138143
13761.37012 0.138158
13761.84961 0.138173
13762.33008 0.138188
13762.80957 0.138203
13763.29004 0.138218
13763.76953 0.138234
13764.25000 0.138249
13764.73047 0.138264
13765.20996 0.138278
13765.69043 0.138292
13766.16992 0.138305
13766.65039 0.138318
13767.12988 0.138332
13767.62012 0.138345
13768.08984 0.138359
13768.58008 0.138372
13769.05957 0.138386
13769.54004 0.138399
13770.01953 0.138412
13770.50000 0.138428
13770.98047 0.138444
13771.45996 0.13846
13771.94043 0.138476
13772.41992 0.138491
13772.90039 0.138507
13773.37988 0.138523
13773.86035 0.138539
13774.33984 0.138555
13774.82031 0.138571
13775.29980 0.138589
13775.78027 0.13861
13776.25977 0.13863
13776.74023 0.13865
13777.21973 0.138671
13777.70020 0.138691
13778.17969 0.138711
13778.66016 0.138732
13779.13965 0.138752
13779.62012 0.138772
13780.09961 0.138791
13780.58008 0.138804
13781.07031 0.138818
13781.54980 0.13883
13782.03027 0.138844
13782.50977 0.138857
13782.99023 0.13887
13783.46973 0.138883
13783.95020 0.138896
13784.42969 0.138909
13784.91016 0.138922
13785.38965 0.138938
13785.87012 0.138955
13786.34961 0.138972
13786.83008 0.138989
13787.32031 0.139005
13787.79980 0.139022
13788.28027 0.139039
13788.75977 0.139056
13789.24023 0.139072
13789.71973 0.139089
13790.20020 0.139107
13790.67969 0.139127
13791.16016 0.139147
13791.63965 0.139167
13792.12988 0.139186
13792.61035 0.139206
13793.08984 0.139226
13793.57031 0.139246
13794.04980 0.139266
13794.53027 0.139286
13795.00977 0.139305
13795.49023 0.139327
13795.96973 0.139349
13796.45020 0.13937
13796.94043 0.139392
13797.41992 0.139413
13797.90039 0.139435
13798.37988 0.139457
13798.86035 0.139478
13799.33984 0.1395
13799.82031 0.139522
13800.29980 0.139538
13800.79004 0.139552
13801.26953 0.139566
13801.75000 0.139579
13802.23047 0.139593
13802.70996 0.139607
13803.19043 0.13962
13803.66992 0.139634
13804.16016 0.139648
13804.63965 0.139661
13805.12012 0.139676
13805.59961 0.139696
13806.08008 0.139715
13806.55957 0.139734
13807.04004 0.139754
13807.53027 0.139773
13808.00977 0.139792
13808.49023 0.139812
13808.96973 0.139831
13809.45020 0.13985
13809.92969 0.13987
13810.41992 0.139889
13810.90039 0.139908
13811.37988 0.139927
13811.86035 0.139946
13812.33984 0.139965
13812.82031 0.139985
13813.30957 0.140004
13813.79004 0.140023
13814.26953 0.140042
13814.75000 0.140061
13815.23047 0.14008
13815.70996 0.1401
13816.20020 0.14012
13816.67969 0.14014
13817.16016 0.14016
13817.63965 0.14018
13818.12012 0.1402
13818.61035 0.14022
13819.08984 0.14024
13819.57031 0.14026
13820.04980 0.140279
13820.53027 0.14029
13821.01953 0.1403
13821.50000 0.140311
13821.98047 0.140322
13822.45996 0.140333
13822.94043 0.140344
13823.42969 0.140355
13823.91016 0.140366
13824.38965 0.140376
13824.87012 0.140387
13825.34961 0.140406
13825.83984 0.140427
13826.32031 0.140449
13826.79980 0.14047
13827.28027 0.140491
13827.76953 0.140513
13828.25000 0.140534
13828.73047 0.140556
13829.20996 0.140577
13829.70020 0.140599
13830.17969 0.140615
13830.66016 0.140623
13831.13965 0.14063
13831.62012 0.140638
13832.11035 0.140646
13832.58984 0.140654
13833.07031 0.140661
13833.54980 0.140669
13834.04004 0.140677
13834.51953 0.140684
13835.00000 0.140692
13835.48047 0.140702
13835.96973 0.140712
13836.45020 0.140722
13836.92969 0.140732
13837.41016 0.140742
13837.90039 0.140753
13838.37988 0.140763
13838.86035 0.140772
13839.33984 0.140783
13839.83008 0.140792
13840.30957 0.140806
13840.79004 0.140821
13841.28027 0.140836
13841.75977 0.140851
13842.24023 0.140866
13842.71973 0.14088
13843.20996 0.140895
13843.69043 0.14091
13844.16992 0.140925
13844.66016 0.14094
13845.13965 0.140955
13845.62012 0.140969
13846.09961 0.140983
13846.58984 0.140997
13847.07031 0.141011
13847.54980 0.141025
13848.04004 0.14104
13848.51953 0.141054
13849.00000 0.141068
13849.48047 0.141082
13849.96973 0.141096
13850.45020 0.141107
13850.92969 0.141117
13851.41992 0.141128
13851.90039 0.141139
13852.37988 0.141149
13852.87012 0.14116
13853.34961 0.141171
13853.83008 0.141181
13854.32031 0.141192
13854.79980 0.141202
13855.28027 0.141211
13855.75977 0.141218
13856.25000 0.141226
13856.73047 0.141233
13857.20996 0.14124
13857.70020 0.141248
13858.17969 0.141255
13858.66992 0.141262
13859.15039 0.14127
13859.62988 0.141277
13860.11035 0.141285
13860.59961 0.141295
13861.08008 0.141305
13861.55957 0.141315
13862.04980 0.141325
13862.53027 0.141336
13863.01953 0.141346
13863.50000 0.141356
13863.98047 0.141366
13864.46973 0.141376
13864.95020 0.141386
13865.42969 0.141395
13865.91992 0.141404
13866.40039 0.141412
13866.87988 0.141421
13867.37012 0.14143
13867.84961 0.141438
13868.33008 0.141447
13868.82031 0.141456
13869.29980 0.141464
13869.79004 0.141473
13870.26953 0.141478
13870.75000 0.141481
13871.24023 0.141484
13871.71973 0.141487
13872.20020 0.14149
13872.69043 0.141493
13873.16992 0.141496
13873.66016 0.1415
13874.13965 0.141503
13874.62012 0.141506
13875.11035 0.141509
13875.58984 0.141513
13876.08008 0.141517
13876.55957 0.141521
13877.04004 0.141525
13877.53027 0.14153
13878.00977 0.141534
13878.50000 0.141538
13878.98047 0.141542
13879.45996 0.141546
13879.95020 0.14155
13880.42969 0.141553
13880.91992 0.141555
13881.40039 0.141558
13881.87988 0.14156
13882.37012 0.141563
13882.84961 0.141565
13883.33984 0.141568
13883.82031 0.14157
13884.29980 0.141573
13884.79004 0.141575
13885.26953 0.141576
13885.75977 0.141577
13886.24023 0.141577
13886.73047 0.141578
13887.20996 0.141578
13887.70020 0.141579
13888.17969 0.141579
13888.66016 0.141579
13889.15039 0.14158
13889.62988 0.14158
13890.12012 0.141581
13890.59961 0.141584
13891.08984 0.141587
13891.57031 0.141589
13892.04980 0.141592
13892.54004 0.141595
13893.01953 0.141597
13893.50977 0.1416
13893.99023 0.141602
13894.48047 0.141605
13894.95996 0.141608
13895.45020 0.141607
13895.92969 0.141607
13896.41992 0.141606
13896.90039 0.141605
13897.38965 0.141605
13897.87012 0.141604
13898.34961 0.141603
13898.83984 0.141603
13899.32031 0.141602
13899.80957 0.141601
13900.29004 0.1416
13900.78027 0.141598
13901.25977 0.141597
13901.75000 0.141595
13902.23047 0.141593
13902.71973 0.141591
13903.20020 0.141589
13903.69043 0.141588
13904.16992 0.141586
13904.66016 0.141584
13905.13965 0.141583
13905.62988 0.141586
13906.11035 0.141588
13906.59961 0.14159
13907.08008 0.141592
13907.57031 0.141595
13908.04980 0.141597
13908.54004 0.141599
13909.01953 0.141601
13909.50977 0.141603
13909.99023 0.141606
13910.48047 0.141601
13910.95996 0.141597
13911.45020 0.141592
13911.92969 0.141588
13912.41992 0.141583
13912.90039 0.141578
13913.38965 0.141574
13913.87012 0.141569
13914.36035 0.141565
13914.83984 0.14156
13915.33008 0.141556
13915.82031 0.141551
13916.29980 0.141546
13916.79004 0.141541
13917.26953 0.141536
13917.75977 0.141531
13918.24023 0.141526
13918.73047 0.141521
13919.20996 0.141516
13919.70020 0.141511
13920.17969 0.141509
13920.66992 0.14151
13921.16016 0.141511
13921.63965 0.141512
13922.12988 0.141513
13922.61035 0.141514
13923.09961 0.141515
13923.58008 0.141516
13924.07031 0.141517
13924.54980 0.141518
13925.04004 0.141518
13925.53027 0.141514
13926.00977 0.14151
13926.50000 0.141506
13926.98047 0.141503
13927.46973 0.141498
13927.95020 0.141495
13928.44043 0.141491
13928.92969 0.141487
13929.41016 0.141483
13929.90039 0.141479
13930.37988 0.141471
13930.87012 0.141462
13931.34961 0.141453
13931.83984 0.141444
13932.33008 0.141436
13932.80957 0.141427
13933.29980 0.141418
13933.78027 0.141409
13934.26953 0.1414
13934.75977 0.141391
13935.24023 0.141387
13935.73047 0.141389
13936.20996 0.14139
13936.70020 0.141391
13937.19043 0.141392
13937.66992 0.141393
13938.16016 0.141394
13938.63965 0.141395
13939.12988 0.141396
13939.62012 0.141397
13940.09961 0.141395
13940.58984 0.141383
13941.08008 0.141371
13941.55957 0.141359
13942.04980 0.141347
13942.53027 0.141336
13943.01953 0.141324
13943.50977 0.141312
13943.99023 0.1413
13944.48047 0.141288
13944.96973 0.141276
13945.45020 0.141269
13945.94043 0.141263
13946.41992 0.141257
13946.91016 0.14125
13947.40039 0.141244
13947.87988 0.141237
13948.37012 0.141231
13948.86035 0.141224
13949.33984 0.141218
13949.83008 0.141211
13950.32031 0.141203
13950.79980 0.141194
13951.29004 0.141184
13951.78027 0.141175
13952.25977 0.141166
13952.75000 0.141156
13953.24023 0.141147
13953.71973 0.141138
13954.20996 0.141128
13954.70020 0.141119
13955.17969 0.141109
13955.66992 0.141099
13956.16016 0.14109
13956.63965 0.14108
13957.12988 0.14107
13957.62012 0.14106
13958.09961 0.14105
13958.58984 0.14104
13959.08008 0.14103
13959.55957 0.14102
13960.04980 0.141011
13960.54004 0.141004
13961.01953 0.140996
13961.50977 0.140989
13962.00000 0.140982
13962.49023 0.140975
13962.96973 0.140967
13963.45996 0.14096
13963.95020 0.140953
13964.42969 0.140946
13964.91992 0.140939
13965.41016 0.140929
13965.88965 0.140918
13966.37988 0.140907
13966.87012 0.140896
13967.36035 0.140885
13967.83984 0.140875
13968.33008 0.140864
13968.82031 0.140853
13969.29980 0.140842
13969.79004 0.140832
13970.28027 0.140822
13970.76953 0.140814
13971.25000 0.140806
13971.74023 0.140797
13972.23047 0.140789
13972.70996 0.14078
13973.20020 0.140772
13973.69043 0.140764
13974.17969 0.140755
13974.66016 0.140747
13975.15039 0.140741
13975.63965 0.14074
13976.12988 0.140739
13976.61035 0.140738
13977.09961 0.140737
13977.58984 0.140736
13978.08008 0.140735
13978.55957 0.140734
13979.04980 0.140734
13979.54004 0.140733
13980.03027 0.140731
13980.50977 0.140723
13981.00000 0.140715
13981.49023 0.140706
13981.98047 0.140698
13982.45996 0.14069
13982.95020 0.140681
13983.44043 0.140673
13983.92969 0.140665
13984.41992 0.140656
13984.90039 0.140648
13985.38965 0.140642
13985.87988 0.140636
13986.37012 0.14063
13986.84961 0.140625
13987.33984 0.140619
13987.83008 0.140614
13988.32031 0.140608
13988.80957 0.140602
13989.29004 0.140597
13989.78027 0.140591
13990.26953 0.140585
13990.75977 0.140578
13991.25000 0.140572
13991.73047 0.140565
13992.21973 0.140559
13992.70996 0.140552
13993.20020 0.140545
13993.67969 0.140539
13994.16992 0.140532
13994.66016 0.140525
13995.15039 0.140518
13995.63965 0.140509
13996.12988 0.1405
13996.61035 0.140491
13997.09961 0.140482
13997.58984 0.140473
13998.08008 0.140464
13998.57031 0.140455
13999.04980 0.140446
13999.54004 0.140436
14000.03027 0.140427
14000.51953 0.140417
14001.00977 0.140407
14001.50000 0.140397
14001.98047 0.140386
14002.46973 0.140376
14002.95996 0.140366
14003.45020 0.140355
14003.94043 0.140345
14004.42969 0.140335
14004.91016 0.140324
14005.40039 0.140319
14005.88965 0.140315
14006.37988 0.140311
14006.87012 0.140307
14007.36035 0.140303
14007.84961 0.140299
14008.33008 0.140294
14008.82031 0.14029
14009.30957 0.140286
14009.79980 0.140282
14010.29004 0.140276
14010.78027 0.140269
14011.26953 0.140262
14011.75000 0.140255
14012.24023 0.140248
14012.73047 0.14024
14013.21973 0.140233
14013.70996 0.140226
14014.20020 0.140219
14014.69043 0.140212
14015.17969 0.140204
14015.66016 0.140196
14016.15039 0.140187
14016.63965 0.140179
14017.12988 0.140171
14017.62012 0.140162
14018.11035 0.140154
14018.59961 0.140145
14019.08984 0.140137
14019.58008 0.140128
14020.05957 0.140121
14020.54980 0.140119
14021.04004 0.140117
14021.53027 0.140116
14022.01953 0.140114
14022.50977 0.140113
14023.00000 0.140111
14023.49023 0.140109
14023.98047 0.140108
14024.46973 0.140106
14024.95996 0.140104
14025.44043 0.1401
14025.92969 0.140096
14026.41992 0.140091
14026.91016 0.140087
14027.40039 0.140082
14027.88965 0.140077
14028.37988 0.140073
14028.87012 0.140069
14029.36035 0.140064
14029.84961 0.14006
14030.33984 0.140055
14030.83008 0.140051
14031.30957 0.140047
14031.79980 0.140042
14032.29004 0.140038
14032.78027 0.140034
14033.26953 0.14003
14033.75977 0.140026
14034.25000 0.140021
14034.74023 0.140017
14035.23047 0.140014
14035.71973 0.140011
14036.20996 0.140009
14036.70020 0.140006
14037.19043 0.140004
14037.67969 0.140001
14038.16992 0.139999
14038.66016 0.139996
14039.15039 0.139994
14039.63965 0.139991
14040.12988 0.139988
14040.62012 0.13998
14041.11035 0.139973
14041.58984 0.139966
14042.08008 0.139959
14042.57031 0.139951
14043.05957 0.139944
14043.54980 0.139937
14044.04004 0.139929
14044.53027 0.139922
14045.01953 0.139915
14045.50977 0.139918
14046.00000 0.13992
14046.49023 0.139923
14046.98047 0.139925
14047.46973 0.139928
14047.95996 0.13993
14048.45020 0.139933
14048.94043 0.139935
14049.42969 0.139938
14049.91992 0.13994
14050.41016 0.13994
14050.90039 0.139939
14051.38965 0.139938
14051.87988 0.139937
14052.37012 0.139936
14052.86035 0.139935
14053.34961 0.139934
14053.83984 0.139933
14054.33008 0.139932
14054.82031 0.139931
14055.30957 0.139929
14055.79980 0.139926
14056.29004 0.139922
14056.78027 0.139919
14057.26953 0.139916
14057.75977 0.139912
14058.25000 0.139909
14058.75000 0.139906
14059.24023 0.139902
14059.73047 0.139899
14060.21973 0.139898
14060.70996 0.139899
14061.20020 0.1399
14061.69043 0.139901
14062.17969 0.139902
14062.66992 0.139903
14063.16016 0.139904
14063.65039 0.139905
14064.13965 0.139907
14064.62988 0.139908
14065.12012 0.139909
14065.61035 0.139911
14066.09961 0.139914
14066.58984 0.139916
14067.08008 0.139918
14067.57031 0.13992
14068.05957 0.139923
14068.54980 0.139925
14069.04980 0.139927
14069.54004 0.139929
14070.03027 0.139932
14070.51953 0.139936
14071.00977 0.139941
14071.50000 0.139946
14071.99023 0.13995
14072.48047 0.139955
14072.96973 0.13996
14073.45996 0.139964
14073.95020 0.139969
14074.44043 0.139974
14074.94043 0.139979
14075.42969 0.139981
14075.91992 0.139983
14076.41016 0.139985
14076.90039 0.139987
14077.38965 0.13999
14077.87988 0.139992
14078.37012 0.139994
14078.86035 0.139996
14079.34961 0.139998
14079.83984 0.140001
14080.33984 0.140001
14080.83008 0.140002
14081.32031 0.140002
14081.80957 0.140002
14082.29980 0.140002
14082.79004 0.140002
14083.28027 0.140002
14083.76953 0.140002
14084.25977 0.140003
14084.75977 0.140003
14085.25000 0.140006
14085.74023 0.140013
14086.23047 0.140019
14086.71973 0.140026
14087.20996 0.140033
14087.70020 0.14004
14088.20020 0.140047
14088.69043 0.140053
14089.17969 0.14006
14089.66992 0.140067
14090.16016 0.140073
14090.65039 0.14008
14091.13965 0.140087
14091.62988 0.140093
14092.12988 0.1401
14092.62012 0.140107
14093.11035 0.140113
14093.59961 0.14012
14094.08984 0.140126
14094.58008 0.140133
14095.08008 0.140139
14095.57031 0.140145
14096.05957 0.14015
14096.54980 0.140155
14097.04004 0.14016
14097.53027 0.140165
14098.03027 0.14017
14098.51953 0.140175
14099.00977 0.14018
14099.50000 0.140185
14099.99023 0.14019
14100.48047 0.140193
14100.98047 0.140196
14101.46973 0.140199
14101.95996 0.140202
14102.45020 0.140205
14102.94043 0.140208
14103.42969 0.140211
14103.92969 0.140213
14104.41992 0.140216
14104.91016 0.140219
14105.40039 0.140225
14105.88965 0.140231
14106.38965 0.140238
14106.87988 0.140244
14107.37012 0.140251
14107.86035 0.140257
14108.34961 0.140263
14108.84961 0.14027
14109.33984 0.140276
14109.83008 0.140282
14110.32031 0.140288
14110.80957 0.140293
14111.30957 0.140299
14111.79980 0.140304
14112.29004 0.14031
14112.78027 0.140315
14113.28027 0.140321
14113.76953 0.140326
14114.25977 0.140331
14114.75000 0.140337
14115.24023 0.140344
14115.74023 0.140352
14116.23047 0.14036
14116.71973 0.140369
14117.20996 0.140377
14117.70996 0.140385
14118.20020 0.140394
14118.69043 0.140402
14119.17969 0.140411
14119.67969 0.140419
14120.16992 0.14043
14120.66016 0.140448
14121.15039 0.140466
14121.65039 0.140484
14122.13965 0.140502
14122.62988 0.140519
14123.12012 0.140537
14123.62012 0.140555
14124.11035 0.140573
14124.59961 0.14059
14125.08984 0.140606
14125.58984 0.140611
14126.08008 0.140616
14126.57031 0.14062
14127.05957 0.140625
14127.55957 0.14063
14128.04980 0.140635
14128.54004 0.14064
14129.04004 0.140645
14129.53027 0.140649
14130.01953 0.140654
14130.50977 0.140665
14131.00977 0.140677
14131.50000 0.140687
14131.99023 0.140699
14132.49023 0.140709
14132.98047 0.14072
14133.46973 0.140732
14133.95996 0.140743
14134.45996 0.140754
14134.95020 0.140764
14135.44043 0.140776
14135.94043 0.140788
14136.42969 0.1408
14136.91992 0.140812
14137.41992 0.140824
14137.91016 0.140836
14138.40039 0.140848
14138.88965 0.14086
14139.38965 0.140872
14139.87988 0.140883
14140.37012 0.140895
14140.87012 0.140905
14141.36035 0.140916
14141.84961 0.140927
14142.34961 0.140937
14142.83984 0.140948
14143.33008 0.140958
14143.83008 0.140969
14144.32031 0.14098
14144.80957 0.14099
14145.30957 0.141002
14145.79980 0.141014
14146.29004 0.141026
14146.79004 0.141038
14147.28027 0.141049
14147.76953 0.141061
14148.26953 0.141073
14148.75977 0.141085
14149.25000 0.141097
14149.75000 0.141109
14150.24023 0.141121
14150.73047 0.141132
14151.23047 0.141144
14151.71973 0.141155
14152.20996 0.141167
14152.70996 0.141179
14153.20020 0.14119
14153.70020 0.141202
14154.19043 0.141214
14154.67969 0.141225
14155.17969 0.141237
14155.66992 0.141251
14156.16016 0.141263
14156.66016 0.141277
14157.15039 0.14129
14157.63965 0.141303
14158.13965 0.141316
14158.62988 0.141329
14159.12988 0.141342
14159.62012 0.141355
14160.11035 0.141368
14160.61035 0.141382
14161.09961 0.141397
14161.58984 0.141411
14162.08984 0.141425
14162.58008 0.141439
14163.08008 0.141454
14163.57031 0.141468
14164.05957 0.141482
14164.55957 0.141497
14165.04980 0.141511
14165.54980 0.141522
14166.04004 0.141534
14166.54004 0.141546
14167.03027 0.141558
14167.51953 0.14157
14168.01953 0.141582
14168.50977 0.141594
14169.00977 0.141605
14169.50000 0.141617
14169.99023 0.141629
14170.49023 0.141645
14170.98047 0.141662
14171.48047 0.141678
14171.96973 0.141694
14172.45996 0.141711
14172.95996 0.141727
14173.45020 0.141743
14173.95020 0.141759
14174.44043 0.141776
14174.94043 0.141792
14175.42969 0.14181
14175.92969 0.141828
14176.41992 0.141846
14176.91016 0.141864
14177.41016 0.141882
14177.90039 0.1419
14178.40039 0.141918
14178.88965 0.141936
14179.38965 0.141954
14179.87988 0.141972
14180.37988 0.141986
14180.87012 0.141999
14181.37012 0.142013
14181.86035 0.142026
14182.34961 0.142039
14182.84961 0.142052
14183.33984 0.142065
14183.83984 0.142079
14184.33008 0.142092
14184.83008 0.142105
14185.32031 0.142121
14185.82031 0.142137
14186.30957 0.142154
14186.80957 0.142171
14187.29980 0.142188
14187.79980 0.142205
14188.29004 0.142222
14188.79004 0.142239
14189.28027 0.142256
14189.78027 0.142273
14190.26953 0.14229
14190.76953 0.142308
14191.25977 0.142325
14191.75000 0.142343
14192.25000 0.14236
14192.75000 0.142378
14193.24023 0.142395
14193.74023 0.142413
14194.23047 0.14243
14194.71973 0.142448
14195.21973 0.142465
14195.70996 0.142481
14196.20996 0.142497
14196.70996 0.142513
14197.20020 0.142529
14197.70020 0.142545
14198.19043 0.142561
14198.69043 0.142577
14199.17969 0.142593
14199.67969 0.142609
14200.16992 0.142626
14200.66992 0.142646
14201.16016 0.142666
14201.66016 0.142686
14202.15039 0.142706
14202.65039 0.142727
14203.13965 0.142747
14203.63965 0.142767
14204.12988 0.142787
14204.62988 0.142807
14205.12988 0.142827
14205.62012 0.142846
14206.12012 0.142865
14206.61035 0.142884
14207.11035 0.142903
14207.59961 0.142922
14208.09961 0.142941
14208.58984 0.14296
14209.08984 0.14298
14209.58008 0.142999
14210.08008 0.143018
14210.58008 0.143036
14211.07031 0.143053
14211.57031 0.143071
14212.05957 0.143089
14212.55957 0.143107
14213.04980 0.143125
14213.54980 0.143143
14214.04004 0.14316
14214.54004 0.143178
14215.04004 0.143196
14215.53027 0.143218
14216.03027 0.143239
14216.51953 0.14326
14217.01953 0.143282
14217.51953 0.143303
14218.00977 0.143324
14218.50977 0.143346
14219.00000 0.143367
14219.50000 0.143388
14220.00000 0.14341
14220.49023 0.143432
14220.99023 0.143454
14221.48047 0.143477
14221.98047 0.143499
14222.48047 0.143521
14222.96973 0.143544
14223.46973 0.143566
14223.95996 0.143589
14224.45996 0.143611
14224.95996 0.143633
14225.45020 0.143653
14225.95020 0.143674
14226.44043 0.143694
14226.94043 0.143713
14227.44043 0.143733
14227.92969 0.143753
14228.42969 0.143773
14228.91992 0.143793
14229.41992 0.143813
14229.91992 0.143833
14230.41016 0.143856
14230.91016 0.14388
14231.41016 0.143903
14231.90039 0.143927
14232.40039 0.143951
14232.90039 0.143974
14233.38965 0.143998
14233.88965 0.144021
14234.37988 0.144045
14234.87988 0.144068
14235.37988 0.144092
14235.87012 0.144116
14236.37012 0.144139
14236.87012 0.144163
14237.36035 0.144187
14237.86035 0.144211
14238.36035 0.144234
14238.84961 0.144258
14239.34961 0.144282
14239.84961 0.144305
14240.33984 0.144324
14240.83984 0.144339
14241.33984 0.144355
14241.83008 0.144371
14242.33008 0.144387
14242.83008 0.144402
14243.32031 0.144418
14243.82031 0.144434
14244.32031 0.144449
14244.80957 0.144465
14245.30957 0.14449
14245.80957 0.144521
14246.29980 0.144552
14246.79980 0.144582
14247.29980 0.144613
14247.79004 0.144644
14248.29004 0.144675
14248.79004 0.144705
14249.29004 0.144736
14249.78027 0.144767
14250.28027 0.144789
14250.78027 0.144805
14251.26953 0.14482
14251.76953 0.144836
14252.26953 0.144851
14252.75977 0.144867
14253.25977 0.144883
14253.75977 0.144898
14254.25977 0.144914
14254.75000 0.144929
14255.25000 0.144953
14255.75000 0.144985
14256.25000 0.145016
14256.74023 0.145048
14257.24023 0.14508
14257.74023 0.145112
14258.23047 0.145143
14258.73047 0.145175
14259.23047 0.145207
14259.73047 0.145238
14260.21973 0.145263
14260.71973 0.145278
14261.21973 0.145293
14261.70996 0.145308
14262.20996 0.145323
14262.70996 0.145338
14263.20996 0.145353
14263.70996 0.145368
14264.20020 0.145383
14264.70020 0.145398
14265.20020 0.145423
14265.69043 0.14546
14266.19043 0.145498
14266.69043 0.145536
14267.19043 0.145574
14267.67969 0.145611
14268.17969 0.145649
14268.67969 0.145687
14269.17969 0.145725
14269.67969 0.145763
14270.16992 0.145799
14270.66992 0.145832
14271.16992 0.145866
14271.66992 0.145899
14272.16016 0.145932
14272.66016 0.145965
14273.16016 0.145999
14273.66016 0.146032
14274.16016 0.146065
14274.65039 0.146098
14275.15039 0.146126
14275.65039 0.146139
14276.15039 0.146153
14276.63965 0.146167
14277.13965 0.14618
14277.63965 0.146194
14278.13965 0.146207
14278.63965 0.146221
14279.12988 0.146235
14279.62988 0.146248
14280.12988 0.146264
14280.62988 0.146288
14281.12988 0.146311
14281.62012 0.146335
14282.12012 0.146358
14282.62012 0.146381
14283.12012 0.146405
14283.62012 0.146428
14284.12012 0.146451
14284.61035 0.146475
14285.11035 0.1465
14285.61035 0.146529
14286.11035 0.146558
14286.61035 0.146588
14287.09961 0.146617
14287.59961 0.146647
14288.09961 0.146676
14288.59961 0.146705
14289.09961 0.146735
14289.59961 0.146764
14290.08984 0.146793
14290.58984 0.146819
14291.08984 0.146846
14291.58984 0.146872
14292.08984 0.146898
14292.58984 0.146925
14293.08008 0.146951
14293.58008 0.146977
14294.08008 0.147003
14294.58008 0.14703
14295.08008 0.147056
14295.58008 0.147083
14296.08008 0.14711
14296.58008 0.147137
14297.07031 0.147163
14297.57031 0.14719
14298.07031 0.147217
14298.57031 0.147244
14299.07031 0.147271
14299.57031 0.147298
14300.07031 0.147325
14300.55957 0.147352
14301.05957 0.147379
14301.55957 0.147407
14302.05957 0.147434
14302.55957 0.147462
14303.05957 0.147489
14303.55957 0.147516
14304.05957 0.147544
14304.54980 0.147571
14305.04980 0.147599
14305.54980 0.147628
14306.04980 0.147658
14306.54980 0.147688
14307.04980 0.147718
14307.54980 0.147748
14308.04980 0.147777
14308.54980 0.147807
14309.04980 0.147837
14309.54004 0.147867
14310.04004 0.147896
14310.54004 0.147923
14311.04004 0.14795
14311.54004 0.147977
14312.04004 0.148004
14312.54004 0.148031
14313.04004 0.148057
14313.54004 0.148084
14314.04004 0.148111
14314.54004 0.148138
14315.04004 0.148165
14315.53027 0.148196
14316.03027 0.148226
14316.53027 0.148256
14317.03027 0.148287
14317.53027 0.148317
14318.03027 0.148347
14318.53027 0.148378
14319.03027 0.148408
14319.53027 0.148439
14320.03027 0.148469
14320.53027 0.148501
14321.03027 0.148532
14321.53027 0.148563
14322.03027 0.148595
14322.53027 0.148626
14323.03027 0.148658
14323.53027 0.148689
14324.01953 0.148721
14324.51953 0.148752
14325.01953 0.148783
14325.51953 0.14881
14326.01953 0.148838
14326.51953 0.148865
14327.01953 0.148892
14327.51953 0.148919
14328.01953 0.148946
14328.51953 0.148974
14329.01953 0.149001
14329.51953 0.149028
14330.01953 0.149056
14330.51953 0.14909
14331.01953 0.149124
14331.51953 0.149159
14332.01953 0.149193
14332.51953 0.149228
14333.01953 0.149262
14333.51953 0.149297
14334.01953 0.149331
14334.51953 0.149366
14335.01953 0.1494
14335.51953 0.149431
14336.01953 0.149461
14336.51953 0.149492
14337.01953 0.149522
14337.51953 0.149553
14338.01953 0.149583
14338.51953 0.149614
14339.01953 0.149645
14339.51953 0.149675
14340.01953 0.149706
14340.51953 0.149737
14341.01953 0.149768
14341.51953 0.1498
14342.01953 0.149831
14342.51953 0.149862
14343.01953 0.149893
14343.51953 0.149925
14344.01953 0.149956
14344.51953 0.149987
14345.01953 0.150019
14345.51953 0.15006
14346.01953 0.1501
14346.51953 0.150141
14347.01953 0.150181
14347.51953 0.150222
14348.01953 0.150263
14348.51953 0.150303
14349.01953 0.150344
14349.53027 0.150385
14350.03027 0.150424
14350.53027 0.150452
14351.03027 0.15048
14351.53027 0.150508
14352.03027 0.150536
14352.53027 0.150564
14353.03027 0.150591
14353.53027 0.150619
14354.03027 0.150647
14354.53027 0.150675
14355.03027 0.150703
14355.53027 0.150738
14356.03027 0.150773
14356.53027 0.150808
14357.03027 0.150843
14357.53027 0.150878
14358.04004 0.150913
14358.54004 0.150948
14359.04004 0.150983
14359.54004 0.151018
14360.04004 0.151053
14360.54004 0.151087
14361.04004 0.15112
14361.54004 0.151153
14362.04004 0.151186
14362.54004 0.151219
14363.04004 0.151253
14363.54004 0.151286
14364.04980 0.151319
14364.54980 0.151352
14365.04980 0.151385
14365.54980 0.151418
14366.04980 0.15145
14366.54980 0.151483
14367.04980 0.151515
14367.54980 0.151548
14368.04980 0.15158
14368.54980 0.151613
14369.05957 0.151645
14369.55957 0.151678
14370.05957 0.151711
14370.55957 0.151748
14371.05957 0.151784
14371.55957 0.151821
14372.05957 0.151859
14372.55957 0.151895
14373.07031 0.151932
14373.57031 0.15197
14374.07031 0.152007
14374.57031 0.152044
14375.07031 0.152081
14375.57031 0.15212
14376.07031 0.152159
14376.58008 0.152198
14377.08008 0.152237
14377.58008 0.152276
14378.08008 0.152315
14378.58008 0.152354
14379.08008 0.152393
14379.58008 0.152432
14380.08008 0.15247
14380.58984 0.152503
14381.08984 0.152536
14381.58984 0.152569
14382.08984 0.152602
14382.58984 0.152635
14383.08984 0.152667
14383.59961 0.1527
14384.09961 0.152733
14384.59961 0.152766
14385.09961 0.152801
14385.59961 0.15284
14386.09961 0.15288
14386.61035 0.152919
14387.11035 0.152959
14387.61035 0.152998
14388.11035 0.153038
14388.61035 0.153078
14389.12012 0.153117
14389.62012 0.153157
14390.12012 0.153194
14390.62012 0.153225
14391.12012 0.153256
14391.62012 0.153287
14392.12988 0.153318
14392.62988 0.153349
14393.12988 0.153381
14393.62988 0.153412
14394.12988 0.153443
14394.63965 0.153474
14395.13965 0.153506
14395.63965 0.153541
14396.13965 0.153576
14396.63965 0.15361
14397.15039 0.153645
14397.65039 0.15368
14398.15039 0.153715
14398.65039 0.15375
14399.16016 0.153785
14399.66016 0.15382
14400.16016 0.153857
14400.66016 0.153897
14401.16016 0.153938
14401.66992 0.153979
14402.16992 0.15402
14402.66992 0.154061
14403.16992 0.154102
14403.67969 0.154143
14404.17969 0.154184
14404.67969 0.154225
14405.17969 0.154265
14405.69043 0.154303
14406.19043 0.154342
14406.69043 0.15438
14407.19043 0.154419
14407.70020 0.154457
14408.20020 0.154496
14408.70020 0.154534
14409.20020 0.154573
14409.70996 0.154612
14410.20996 0.15465
14410.70996 0.154687
14411.20996 0.154724
14411.71973 0.154762
14412.21973 0.154799
14412.71973 0.154836
14413.21973 0.154873
14413.73047 0.154911
14414.23047 0.154948
14414.73047 0.154985
14415.23047 0.155024
14415.74023 0.155064
14416.24023 0.155105
14416.74023 0.155145
14417.25000 0.155185
14417.75000 0.155225
14418.25000 0.155266
14418.75000 0.155306
14419.25977 0.155346
14419.75977 0.155386
14420.25977 0.155425
14420.76953 0.155463
14421.26953 0.1555
14421.76953 0.155538
14422.26953 0.155575
14422.78027 0.155613
14423.28027 0.15565
14423.78027 0.155688
14424.29004 0.155725
14424.79004 0.155763
14425.29004 0.155798
14425.79980 0.155832
14426.29980 0.155866
14426.79980 0.155899
14427.30957 0.155933
14427.80957 0.155967
14428.30957 0.156001
14428.80957 0.156035
14429.32031 0.156068
14429.82031 0.156102
14430.32031 0.15614
14430.83008 0.156179
14431.33008 0.156219
14431.83008 0.156258
14432.33984 0.156298
14432.83984 0.156337
14433.33984 0.156377
14433.84961 0.156417
14434.34961 0.156456
14434.84961 0.156496
14435.36035 0.156536
14435.86035 0.156577
14436.37012 0.156617
14436.87012 0.156658
14437.37012 0.156699
14437.87988 0.15674
14438.37988 0.15678
14438.87988 0.156821
14439.38965 0.156862
14439.88965 0.156903
14440.38965 0.156943
14440.90039 0.156982
14441.40039 0.157022
14441.90039 0.157062
14442.41016 0.157102
14442.91016 0.157141
14443.41992 0.157181
14443.91992 0.157221
14444.41992 0.15726
14444.92969 0.1573
14445.42969 0.15734
14445.92969 0.15738
14446.44043 0.157419
14446.94043 0.157459
14447.45020 0.157499
14447.95020 0.157538
14448.45020 0.157578
14448.95996 0.157618
14449.45996 0.157657
14449.96973 0.157697
14450.46973 0.157733
14450.96973 0.157768
14451.48047 0.157804
14451.98047 0.157839
14452.49023 0.157875
14452.99023 0.15791
14453.49023 0.157946
14454.00000 0.157981
14454.50000 0.158017
14455.00977 0.158052
14455.50977 0.158088
14456.00977 0.158123
14456.51953 0.158159
14457.01953 0.158194
14457.53027 0.158229
14458.03027 0.158265
14458.54004 0.1583
14459.04004 0.158335
14459.54004 0.158371
14460.04980 0.158406
14460.54980 0.158444
14461.05957 0.158481
14461.55957 0.158519
14462.07031 0.158556
14462.57031 0.158594
14463.07031 0.158632
14463.58008 0.158669
14464.08008 0.158707
14464.58984 0.158744
14465.08984 0.158781
14465.59961 0.158815
14466.09961 0.15885
14466.61035 0.158884
14467.11035 0.158918
14467.62012 0.158952
14468.12012 0.158987
14468.62012 0.159021
14469.12988 0.159055
14469.62988 0.159089
14470.13965 0.159126
14470.63965 0.159169
14471.15039 0.159212
14471.65039 0.159255
14472.16016 0.159297
14472.66016 0.15934
14473.16992 0.159383
14473.66992 0.159426
14474.17969 0.159469
14474.67969 0.159512
14475.19043 0.15955
14475.69043 0.159579
14476.20020 0.159608
14476.70020 0.159638
14477.20996 0.159667
14477.70996 0.159696
14478.20996 0.159726
14478.71973 0.159755
14479.21973 0.159784
14479.73047 0.159814
14480.23047 0.159843
14480.74023 0.159873
14481.25000 0.159903
14481.75000 0.159933
14482.25000 0.159962
14482.75977 0.159992
14483.25977 0.160022
14483.76953 0.160052
14484.28027 0.160081
14484.78027 0.160111
14485.29004 0.160146
14485.79004 0.160186
14486.29980 0.160225
14486.79980 0.160265
14487.30957 0.160304
14487.80957 0.160344
14488.32031 0.160383
14488.82031 0.160422
14489.33008 0.160462
14489.83008 0.160501
14490.33984 0.160535
14490.83984 0.160565
14491.34961 0.160595
14491.84961 0.160625
14492.36035 0.160656
14492.87012 0.160686
14493.37012 0.160716
14493.87988 0.160746
14494.37988 0.160776
14494.88965 0.160806
14495.38965 0.160833
14495.90039 0.160858
14496.40039 0.160884
14496.91016 0.160909
14497.41992 0.160935
14497.91992 0.16096
14498.42969 0.160985
14498.92969 0.161011
14499.44043 0.161036
14499.94043 0.161062
14500.45020 0.161097
14500.95996 0.161134
14501.45996 0.161171
14501.96973 0.161208
14502.46973 0.161245
14502.98047 0.161282
14503.48047 0.161319
14503.99023 0.161355
14504.50000 0.161392
14505.00000 0.161429
14505.50977 0.161456
14506.00977 0.161482
14506.51953 0.161509
14507.03027 0.161535
14507.53027 0.161562
14508.04004 0.161588
14508.54004 0.161615
14509.04980 0.161642
14509.54980 0.161668
14510.05957 0.161695
14510.57031 0.161725
14511.07031 0.161754
14511.58008 0.161784
14512.08008 0.161813
14512.58984 0.161843
14513.09961 0.161873
14513.59961 0.161902
14514.11035 0.161932
14514.62012 0.161961
14515.12012 0.16199
14515.62988 0.162017
14516.12988 0.162044
14516.63965 0.162071
14517.15039 0.162098
14517.65039 0.162125
14518.16016 0.162152
14518.66992 0.162179
14519.16992 0.162206
14519.67969 0.162233
14520.19043 0.162258
14520.69043 0.162279
14521.20020 0.1623
14521.70996 0.162321
14522.20996 0.162342
14522.71973 0.162363
14523.21973 0.162385
14523.73047 0.162406
14524.24023 0.162427
14524.74023 0.162448
14525.25000 0.16247
14525.75977 0.162494
14526.25977 0.162517
14526.76953 0.16254
14527.28027 0.162564
14527.78027 0.162587
14528.29004 0.16261
14528.79980 0.162634
14529.29980 0.162657
14529.80957 0.16268
14530.32031 0.162705
14530.82031 0.162731
14531.33008 0.162757
14531.83984 0.162782
14532.33984 0.162808
14532.84961 0.162834
14533.36035 0.16286
14533.87012 0.162886
14534.37012 0.162911
14534.87988 0.162937
14535.38965 0.162956
14535.88965 0.162973
14536.40039 0.16299
14536.91016 0.163007
14537.41016 0.163024
14537.91992 0.163042
14538.42969 0.163058
14538.92969 0.163076
14539.44043 0.163093
14539.95020 0.16311
14540.45996 0.163129
14540.95996 0.163149
14541.46973 0.163168
14541.98047 0.163188
14542.48047 0.163207
14542.99023 0.163227
14543.50000 0.163247
14544.00977 0.163266
14544.50977 0.163286
14545.01953 0.163306
14545.53027 0.163326
14546.04004 0.163347
14546.54004 0.163368
14547.04980 0.163388
14547.55957 0.163409
14548.05957 0.16343
14548.57031 0.163451
14549.08008 0.163471
14549.58984 0.163492
14550.08984 0.163511
14550.59961 0.163523
14551.11035 0.163534
14551.62012 0.163546
14552.12012 0.163557
14552.62988 0.163569
14553.13965 0.16358
14553.65039 0.163592
14554.15039 0.163603
14554.66016 0.163615
14555.16992 0.163627
14555.67969 0.163642
14556.17969 0.163658
14556.69043 0.163673
14557.20020 0.163688
14557.70996 0.163703
14558.21973 0.163718
14558.71973 0.163733
14559.23047 0.163748
14559.74023 0.163763
14560.25000 0.163775
14560.75000 0.163782
14561.25977 0.16379
14561.76953 0.163798
14562.28027 0.163806
14562.79004 0.163814
14563.29004 0.163822
14563.79980 0.163829
14564.30957 0.163837
14564.82031 0.163845
14565.33008 0.163855
14565.83008 0.163866
14566.33984 0.163877
14566.84961 0.163888
14567.36035 0.163899
14567.87012 0.16391
14568.37012 0.163921
14568.87988 0.163932
14569.38965 0.163943
14569.90039 0.163954
14570.41016 0.163962
14570.91016 0.163968
14571.41992 0.163975
14571.92969 0.163982
14572.44043 0.163989
14572.95020 0.163996
14573.45996 0.164002
14573.95996 0.164009
14574.46973 0.164016
14574.98047 0.164023
14575.49023 0.164028
14576.00000 0.164034
14576.50977 0.16404
14577.00977 0.164045
14577.51953 0.164051
14578.03027 0.164056
14578.54004 0.164061
14579.04980 0.164067
14579.55957 0.164073
14580.05957 0.164078
14580.57031 0.164082
14581.08008 0.164086
14581.58984 0.164091
14582.09961 0.164095
14582.61035 0.164099
14583.12012 0.164103
14583.62012 0.164107
14584.12988 0.164111
14584.63965 0.164116
14585.15039 0.164121
14585.66016 0.164128
14586.16992 0.164135
14586.67969 0.164143
14587.19043 0.16415
14587.69043 0.164158
14588.20020 0.164165
14588.70996 0.164172
14589.21973 0.16418
14589.73047 0.164187
14590.24023 0.164187
14590.75000 0.16418
14591.25977 0.164173
14591.75977 0.164165
14592.26953 0.164158
14592.78027 0.16415
14593.29004 0.164143
14593.79980 0.164135
14594.30957 0.164128
14594.82031 0.164121
14595.33008 0.164114
14595.83984 0.164109
14596.34961 0.164103
14596.84961 0.164098
14597.36035 0.164092
14597.87012 0.164087
14598.37988 0.164081
14598.88965 0.164076
14599.40039 0.16407
14599.91016 0.164064
14600.41992 0.164063
14600.92969 0.164063
14601.44043 0.164063
14601.95020 0.164063
14602.45996 0.164063
14602.95996 0.164062
14603.46973 0.164062
14603.98047 0.164062
14604.49023 0.164062
14605.00000 0.164062
14605.50977 0.164048
14606.01953 0.164035
14606.53027 0.164021
14607.04004 0.164008
14607.54980 0.163994
14608.05957 0.163981
14608.57031 0.163967
14609.08008 0.163954
14609.58984 0.16394
14610.09961 0.163928
14610.61035 0.163921
14611.12012 0.163915
14611.62988 0.163908
14612.12988 0.163901
14612.63965 0.163895
14613.15039 0.163888
14613.66016 0.163882
14614.16992 0.163875
14614.67969 0.163868
14615.19043 0.16386
14615.70020 0.163848
14616.20996 0.163836
14616.71973 0.163825
14617.23047 0.163813
14617.74023 0.163801
14618.25000 0.163789
14618.75977 0.163777
14619.26953 0.163766
14619.78027 0.163754
14620.29004 0.163738
14620.79980 0.163719
14621.30957 0.163699
14621.82031 0.16368
14622.33008 0.163661
14622.83984 0.163642
14623.34961 0.163623
14623.86035 0.163603
14624.37012 0.163584
14624.87988 0.163565
14625.38965 0.163549
14625.90039 0.163533
14626.41016 0.163518
14626.91992 0.163502
14627.42969 0.163487
14627.94043 0.163471
14628.45020 0.163456
14628.95996 0.163441
14629.46973 0.163425
14629.98047 0.16341
14630.49023 0.163396
14631.00000 0.163383
14631.50977 0.163369
14632.01953 0.163355
14632.53027 0.163342
14633.04004 0.163328
14633.54980 0.163315
14634.05957 0.163301
14634.58008 0.163288
14635.08008 0.163273
14635.59961 0.163249
14636.11035 0.163226
14636.62012 0.163203
14637.12988 0.16318
14637.63965 0.163156
14638.15039 0.163133
14638.66016 0.16311
14639.16992 0.163086
14639.67969 0.163063
14640.19043 0.163042
14640.70020 0.163022
14641.20996 0.163003
14641.71973 0.162984
14642.23047 0.162965
14642.74023 0.162945
14643.25000 0.162926
14643.75977 0.162907
14644.28027 0.162887
14644.79004 0.162868
14645.29980 0.162849
14645.80957 0.162828
14646.32031 0.162808
14646.83008 0.162788
14647.33984 0.162768
14647.84961 0.162748
14648.36035 0.162727
14648.87012 0.162707
14649.37988 0.162687
14649.88965 0.162667
14650.41016 0.162641
14650.91992 0.162613
14651.42969 0.162585
14651.94043 0.162557
14652.45020 0.162529
14652.95996 0.162502
14653.46973 0.162474
14653.98047 0.162446
14654.49023 0.162418
14655.00000 0.16239
14655.51953 0.162365
14656.03027 0.16234
14656.54004 0.162315
14657.04980 0.16229
14657.55957 0.162265
14658.07031 0.16224
14658.58008 0.162215
14659.08984 0.16219
14659.61035 0.162165
14660.12012 0.162138
14660.62988 0.162108
14661.13965 0.162078
14661.65039 0.162048
14662.16016 0.162017
14662.66992 0.161987
14663.17969 0.161957
14663.70020 0.161927
14664.20996 0.161896
14664.71973 0.161866
14665.23047 0.161836
14665.74023 0.161807
14666.25000 0.161777
14666.76953 0.161748
14667.28027 0.161719
14667.79004 0.161689
14668.29980 0.16166
14668.80957 0.161631
14669.32031 0.161601
14669.83008 0.161572
14670.34961 0.161546
14670.86035 0.161522
14671.37012 0.161498
14671.87988 0.161474
14672.38965 0.16145
14672.90039 0.161426
14673.41992 0.161402
14673.92969 0.161378
14674.44043 0.161354
14674.95020 0.16133
14675.45996 0.161301
14675.98047 0.161272
14676.49023 0.161242
14677.00000 0.161213
14677.50977 0.161183
14678.01953 0.161154
14678.54004 0.161124
14679.04980 0.161094
14679.55957 0.161065
14680.07031 0.161035
14680.58008 0.161006
14681.08984 0.160977
14681.61035 0.160947
14682.12012 0.160918
14682.62988 0.160889
14683.13965 0.160859
14683.66016 0.16083
14684.16992 0.160801
14684.67969 0.160771
14685.19043 0.160742
14685.70020 0.160714
14686.21973 0.160686
14686.73047 0.160657
14687.24023 0.160629
14687.75000 0.160601
14688.25977 0.160572
14688.78027 0.160544
14689.29004 0.160515
14689.79980 0.160487
14690.30957 0.160456
14690.83008 0.160424
14691.33984 0.160391
14691.84961 0.160358
14692.36035 0.160326
14692.87988 0.160293
14693.38965 0.160261
14693.90039 0.160228
14694.41016 0.160195
14694.92969 0.160163
14695.44043 0.16013
14695.95020 0.160098
14696.45996 0.160065
14696.98047 0.160033
14697.49023 0.16
14698.00000 0.159967
14698.50977 0.159935
14699.03027 0.159902
14699.54004 0.15987
14700.04980 0.159838
14700.55957 0.159812
14701.08008 0.159786
14701.58984 0.15976
14702.09961 0.159734
14702.62012 0.159709
14703.12988 0.159683
14703.63965 0.159657
14704.15039 0.159631
14704.66992 0.159605
14705.17969 0.159576
14705.69043 0.159542
14706.20996 0.159508
14706.71973 0.159473
14707.23047 0.159439
14707.74023 0.159405
14708.25977 0.15937
14708.76953 0.159336
14709.28027 0.159302
14709.79980 0.159267
14710.30957 0.159238
14710.82031 0.159212
14711.33008 0.159186
14711.84961 0.159161
14712.36035 0.159135
14712.87012 0.159109
14713.38965 0.159083
14713.90039 0.159057
14714.41016 0.159031
14714.92969 0.159005
14715.44043 0.158979
14715.95020 0.158953
14716.46973 0.158926
14716.98047 0.158899
14717.49023 0.158873
14718.00977 0.158846
14718.51953 0.15882
14719.03027 0.158793
14719.54980 0.158767
14720.05957 0.158739
14720.57031 0.158709
14721.08984 0.158678
14721.59961 0.158647
14722.11035 0.158616
14722.62988 0.158585
14723.13965 0.158554
14723.65039 0.158524
14724.16992 0.158493
14724.67969 0.158462
14725.19043 0.158432
14725.70996 0.158405
14726.21973 0.158377
14726.74023 0.15835
14727.25000 0.158322
14727.75977 0.158295
14728.28027 0.158268
14728.79004 0.15824
14729.29980 0.158213
14729.82031 0.158185
14730.33008 0.158156
14730.83984 0.158127
14731.36035 0.158098
14731.87012 0.158068
14732.38965 0.158039
14732.90039 0.15801
14733.41016 0.15798
14733.92969 0.157951
14734.44043 0.157921
14734.95996 0.157892
14735.46973 0.157867
14735.98047 0.157842
14736.50000 0.157816
14737.00977 0.157791
14737.51953 0.157766
14738.04004 0.157741
14738.54980 0.157716
14739.07031 0.157691
14739.58008 0.157666
14740.08984 0.157641
14740.61035 0.157619
14741.12012 0.157597
14741.63965 0.157575
14742.15039 0.157553
14742.66992 0.157531
14743.17969 0.157508
14743.69043 0.157486
14744.20996 0.157464
14744.71973 0.157442
14745.24023 0.157419
14745.75000 0.157396
14746.25977 0.157374
14746.78027 0.157351
14747.29004 0.157328
14747.80957 0.157305
14748.32031 0.157282
14748.83984 0.157259
14749.34961 0.157236
14749.87012 0.157213
14750.37988 0.157187
14750.88965 0.157161
14751.41016 0.157134
14751.91992 0.157108
14752.44043 0.157081
14752.95020 0.157054
14753.46973 0.157028
14753.98047 0.157001
14754.50000 0.156975
14755.00977 0.156948
14755.53027 0.156927
14756.04004 0.156907
14756.54980 0.156886
14757.07031 0.156865
14757.58008 0.156845
14758.09961 0.156824
14758.61035 0.156804
14759.12988 0.156783
14759.63965 0.156762
14760.16016 0.156741
14760.66992 0.156718
14761.19043 0.156695
14761.70020 0.156672
14762.21973 0.156649
14762.73047 0.156626
14763.25000 0.156604
14763.75977 0.156581
14764.28027 0.156558
14764.79004 0.156535
14765.30957 0.156513
14765.82031 0.156491
14766.33984 0.156469
14766.84961 0.156446
14767.37012 0.156424
14767.87988 0.156402
14768.40039 0.15638
14768.91016 0.156358
14769.42969 0.156336
14769.94043 0.156314
14770.45996 0.156297
14770.96973 0.156281
14771.49023 0.156265
14772.00000 0.156249
14772.51953 0.156233
14773.03027 0.156217
14773.54980 0.156201
14774.05957 0.156185
14774.58008 0.156168
14775.08984 0.156152
14775.61035 0.156136
14776.12012 0.156119
14776.63965 0.156102
14777.16016 0.156085
14777.66992 0.156068
14778.19043 0.156052
14778.70020 0.156035
14779.21973 0.156018
14779.73047 0.156001
14780.25000 0.155986
14780.75977 0.155972
14781.28027 0.155958
14781.79004 0.155944
14782.30957 0.15593
14782.83008 0.155916
14783.33984 0.155902
14783.86035 0.155888
14784.37012 0.155874
14784.88965 0.155861
14785.40039 0.155849
14785.91992 0.155839
14786.42969 0.155828
14786.95020 0.155817
14787.46973 0.155807
14787.98047 0.155796
14788.50000 0.155786
14789.00977 0.155775
14789.53027 0.155764
14790.04004 0.155753
14790.55957 0.155737
14791.08008 0.155721
14791.58984 0.155705
14792.11035 0.155688
14792.62012 0.155672
14793.13965 0.155656
14793.66016 0.155639
14794.16992 0.155623
14794.69043 0.155607
14795.20020 0.155595
14795.71973 0.155589
14796.24023 0.155584
14796.75000 0.155578
14797.26953 0.155572
14797.78027 0.155566
14798.29980 0.155561
14798.82031 0.155555
14799.33008 0.155549
14799.84961 0.155544
14800.36035 0.155536
14800.87988 0.155527
14801.40039 0.155518
14801.91016 0.155509
14802.42969 0.155501
14802.95020 0.155492
14803.45996 0.155483
14803.98047 0.155474
14804.49023 0.155465
14805.00977 0.155456
14805.53027 0.155442
14806.04004 0.155427
14806.55957 0.155412
14807.08008 0.155398
14807.58984 0.155383
14808.11035 0.155368
14808.62988 0.155353
14809.13965 0.155339
14809.66016 0.155324
14810.16992 0.155315
14810.69043 0.155316
14811.20996 0.155318
14811.71973 0.15532
14812.24023 0.155322
14812.75977 0.155323
14813.26953 0.155325
14813.79004 0.155326
14814.30957 0.155328
14814.82031 0.15533
14815.33984 0.155328
14815.86035 0.155323
14816.37012 0.155319
14816.88965 0.155315
14817.41016 0.155311
14817.91992 0.155306
14818.44043 0.155302
14818.95996 0.155298
14819.48047 0.155294
14819.99023 0.15529
14820.50977 0.155285
14821.03027 0.155281
14821.54004 0.155277
14822.05957 0.155273
14822.58008 0.155269
14823.08984 0.155264
14823.61035 0.15526
14824.12988 0.155256
14824.63965 0.155252
14825.16016 0.15525
14825.67969 0.155252
14826.20020 0.155253
14826.70996 0.155255
14827.23047 0.155257
14827.75000 0.155259
14828.25977 0.155261
14828.78027 0.155263
14829.29980 0.155265
14829.82031 0.155267
14830.33008 0.155271
14830.84961 0.155277
14831.37012 0.155282
14831.87988 0.155288
14832.40039 0.155293
14832.91992 0.155299
14833.44043 0.155304
14833.95020 0.15531
14834.46973 0.155316
14834.99023 0.155321
14835.50977 0.155325
14836.01953 0.15533
14836.54004 0.155334
14837.05957 0.155338
14837.58008 0.155342
14838.08984 0.155346
14838.61035 0.155351
14839.12988 0.155355
14839.65039 0.155359
14840.16016 0.155366
14840.67969 0.15538
14841.20020 0.155393
14841.71973 0.155407
14842.23047 0.155421
14842.75000 0.155435
14843.26953 0.155448
14843.79004 0.155462
14844.29980 0.155476
14844.82031 0.15549
14845.33984 0.155499
14845.86035 0.155506
14846.37988 0.155513
14846.88965 0.15552
14847.41016 0.155527
14847.92969 0.155534
14848.45020 0.155542
14848.95996 0.155549
14849.48047 0.155556
14850.00000 0.155563
14850.51953 0.155578
14851.04004 0.155593
14851.54980 0.155608
14852.07031 0.155623
14852.58984 0.155638
14853.11035 0.155653
14853.62988 0.155668
14854.13965 0.155683
14854.66016 0.155698
14855.17969 0.155715
14855.70020 0.155733
14856.21973 0.155752
14856.74023 0.155771
14857.25000 0.155789
14857.76953 0.155808
14858.29004 0.155827
14858.80957 0.155845
14859.33008 0.155864
14859.83984 0.155882
14860.36035 0.155898
14860.87988 0.155913
14861.40039 0.155928
14861.91992 0.155942
14862.44043 0.155957
14862.95020 0.155972
14863.46973 0.155986
14863.99023 0.156001
14864.50977 0.156016
14865.03027 0.156031
14865.54980 0.156055
14866.05957 0.15608
14866.58008 0.156104
14867.09961 0.156128
14867.62012 0.156153
14868.13965 0.156177
14868.66016 0.156201
14869.17969 0.156226
14869.69043 0.15625
14870.20996 0.156276
14870.73047 0.156303
14871.25000 0.156329
14871.76953 0.156356
14872.29004 0.156383
14872.80957 0.15641
14873.33008 0.156437
14873.83984 0.156464
14874.36035 0.156491
14874.87988 0.156518
14875.40039 0.15654
14875.91992 0.15656
14876.44043 0.156581
14876.95996 0.156601
14877.48047 0.156621
14877.99023 0.156641
14878.50977 0.156662
14879.03027 0.156682
14879.54980 0.156702
14880.07031 0.156724
14880.58984 0.156755
14881.11035 0.156786
14881.62988 0.156817
14882.15039 0.156848
14882.66992 0.156879
14883.17969 0.15691
14883.70020 0.15694
14884.21973 0.156971
14884.74023 0.157002
14885.25977 0.157034
14885.78027 0.157066
14886.29980 0.157098
14886.82031 0.15713
14887.33984 0.157163
14887.86035 0.157195
14888.37988 0.157227
14888.88965 0.157259
14889.41016 0.157291
14889.92969 0.157324
14890.45020 0.157358
14890.96973 0.157393
14891.49023 0.157429
14892.00977 0.157464
14892.53027 0.157499
14893.04980 0.157534
14893.57031 0.15757
14894.08984 0.157605
14894.61035 0.15764
14895.12988 0.157675
14895.65039 0.157711
14896.16992 0.157747
14896.69043 0.157783
14897.20996 0.157818
14897.71973 0.157854
14898.24023 0.15789
14898.75977 0.157925
14899.28027 0.157961
14899.79980 0.157997
14900.32031 0.158034
14900.83984 0.158072
14901.36035 0.15811
14901.87988 0.158147
14902.40039 0.158185
14902.91992 0.158223
14903.44043 0.158261
14903.95996 0.158299
14904.48047 0.158336
14905.00000 0.158374
14905.51953 0.158411
14906.04004 0.158447
14906.55957 0.158483
14907.08008 0.158519
14907.59961 0.158555
14908.12012 0.158591
14908.63965 0.158627
14909.16016 0.158663
14909.67969 0.158699
14910.20020 0.158743
14910.71973 0.158798
14911.24023 0.158853
14911.75977 0.158908
14912.28027 0.158963
14912.79980 0.159018
14913.32031 0.159073
14913.83984 0.159128
14914.36035 0.159183
14914.87988 0.159239
14915.40039 0.159283
14915.91992 0.159325
14916.44043 0.159367
14916.95996 0.159409
14917.48047 0.159451
14918.00000 0.159493
14918.51953 0.159535
14919.04004 0.159577
14919.55957 0.159619
14920.08008 0.159662
14920.59961 0.159713
14921.12012 0.159763
14921.63965 0.159814
14922.16992 0.159865
14922.67969 0.159916
14923.20996 0.159966
14923.73047 0.160017
14924.25000 0.160068
14924.76953 0.160119
14925.29004 0.160166
14925.80957 0.160211
14926.33008 0.160255
14926.84961 0.1603
14927.37012 0.160344
14927.88965 0.160389
14928.41016 0.160434
14928.92969 0.160478
14929.45020 0.160523
14929.96973 0.160567
14930.49023 0.160619
14931.00977 0.160671
14931.54004 0.160722
14932.05957 0.160774
14932.58008 0.160826
14933.09961 0.160878
14933.62012 0.16093
14934.13965 0.160982
14934.66016 0.161034
14935.17969 0.161085
14935.70020 0.161137
14936.21973 0.161189
14936.74023 0.161241
14937.25977 0.161292
14937.79004 0.161344
14938.30957 0.161396
14938.83008 0.161448
14939.34961 0.161499
14939.87012 0.161551
14940.38965 0.161606
14940.91016 0.161662
14941.42969 0.161717
14941.95020 0.161773
14942.46973 0.161829
14943.00000 0.161884
14943.51953 0.16194
14944.04004 0.161996
14944.55957 0.162051
14945.08008 0.162108
14945.59961 0.162168
14946.12012 0.162228
14946.63965 0.162289
14947.16992 0.162349
14947.69043 0.162409
14948.20996 0.16247
14948.73047 0.16253
14949.25000 0.16259
14949.76953 0.162651
14950.29004 0.162709
14950.82031 0.162766
14951.33984 0.162823
14951.86035 0.16288
14952.37988 0.162937
14952.90039 0.162994
14953.41992 0.163051
14953.94043 0.163108
14954.46973 0.163165
14954.99023 0.163222
14955.50977 0.163277
14956.03027 0.163332
14956.54980 0.163388
14957.07031 0.163443
14957.59961 0.163499
14958.12012 0.163554
14958.63965 0.163609
14959.16016 0.163665
14959.67969 0.16372
14960.20020 0.163777
14960.73047 0.163836
14961.25000 0.163896
14961.76953 0.163955
14962.29004 0.164015
14962.80957 0.164074
14963.33008 0.164133
14963.86035 0.164193
14964.37988 0.164252
14964.90039 0.164311
14965.41992 0.164373
14965.94043 0.164434
14966.46973 0.164495
14966.99023 0.164556
14967.50977 0.164617
14968.03027 0.164679
14968.54980 0.16474
14969.08008 0.164801
14969.59961 0.164862
14970.12012 0.164923
14970.63965 0.164982
14971.16992 0.16504
14971.69043 0.165099
14972.20996 0.165157
14972.73047 0.165216
14973.25000 0.165274
14973.78027 0.165333
14974.29980 0.165391
14974.82031 0.16545
14975.33984 0.165512
14975.86035 0.165577
14976.38965 0.165641
14976.91016 0.165706
14977.42969 0.16577
14977.95020 0.165834
14978.48047 0.165899
14979.00000 0.165963
14979.51953 0.166027
14980.04004 0.166092
14980.57031 0.166157
14981.08984 0.166223
14981.61035 0.166288
14982.12988 0.166353
14982.66016 0.166418
14983.17969 0.166484
14983.70020 0.166549
14984.21973 0.166614
14984.75000 0.16668
14985.26953 0.166741
14985.79004 0.1668
14986.30957 0.166859
14986.83984 0.166917
14987.36035 0.166976
14987.87988 0.167035
14988.41016 0.167093
14988.92969 0.167152
14989.45020 0.167211
14989.96973 0.167269
14990.50000 0.167326
14991.01953 0.167382
14991.54004 0.167438
14992.05957 0.167495
14992.58984 0.167551
14993.11035 0.167607
14993.62988 0.167664
14994.16016 0.16772
14994.67969 0.167776
14995.20020 0.167837
14995.73047 0.167905
14996.25000 0.167972
14996.76953 0.16804
14997.29004 0.168107
14997.82031 0.168175
14998.33984 0.168242
14998.86035 0.16831
14999.38965 0.168377
14999.91016 0.168445
15000.42969 0.168502
15000.95996 0.168557
15001.48047 0.168612
15002.00000 0.168666
15002.53027 0.168721
15003.04980 0.168776
15003.57031 0.168831
15004.09961 0.168886
15004.62012 0.168941
15005.13965 0.168994
15005.66992 0.169043
15006.19043 0.169093
15006.70996 0.169142
15007.24023 0.169191
15007.75977 0.169241
15008.28027 0.16929
15008.80957 0.16934
15009.33008 0.169389
15009.84961 0.169438
15010.37988 0.169491
15010.90039 0.169544
15011.41992 0.169598
15011.95020 0.169652
15012.46973 0.169705
15012.99023 0.169759
15013.51953 0.169813
15014.04004 0.169866
15014.55957 0.16992
15015.08984 0.169972
15015.61035 0.170018
15016.13965 0.170064
15016.66016 0.17011
15017.17969 0.170156
15017.70996 0.170202
15018.23047 0.170248
15018.75000 0.170294
15019.28027 0.17034
15019.79980 0.170386
15020.33008 0.170433
15020.84961 0.17048
15021.37012 0.170527
15021.90039 0.170574
15022.41992 0.170621
15022.95020 0.170668
15023.46973 0.170715
15023.99023 0.170763
15024.51953 0.17081
15025.04004 0.170857
15025.57031 0.170908
15026.08984 0.170959
15026.61035 0.17101
15027.13965 0.171061
15027.66016 0.171111
15028.19043 0.171162
15028.70996 0.171213
15029.23047 0.171264
15029.75977 0.171315
15030.28027 0.171359
15030.80957 0.171397
15031.33008 0.171434
15031.84961 0.171472
15032.37988 0.17151
15032.90039 0.171548
15033.42969 0.171586
15033.95020 0.171624
15034.48047 0.171662
15035.00000 0.1717
15035.53027 0.171745
15036.04980 0.171791
15036.57031 0.171836
15037.09961 0.171881
15037.62012 0.171927
15038.15039 0.171972
15038.66992 0.172018
15039.20020 0.172063
15039.71973 0.172109
15040.25000 0.172153
15040.76953 0.172197
15041.29004 0.17224
15041.82031 0.172284
15042.33984 0.172328
15042.87012 0.172371
15043.38965 0.172415
15043.91992 0.172459
15044.44043 0.172502
15044.96973 0.172546
15045.49023 0.172579
15046.01953 0.172611
15046.54004 0.172643
15047.07031 0.172675
15047.58984 0.172707
15048.12012 0.172739
15048.63965 0.172771
15049.16992 0.172803
15049.69043 0.172835
15050.20996 0.172868
15050.74023 0.172902
15051.25977 0.172937
15051.79004 0.172972
15052.30957 0.173006
15052.83984 0.173041
15053.36035 0.173076
15053.88965 0.173111
15054.41992 0.173145
15054.94043 0.17318
15055.45996 0.173214
15055.99023 0.173248
15056.50977 0.173282
15057.04004 0.173317
15057.57031 0.173351
15058.08984 0.173385
15058.62012 0.173419
15059.13965 0.173453
15059.66992 0.173487
15060.19043 0.17352
15060.71973 0.173551
15061.24023 0.173581
15061.76953 0.173612
15062.29004 0.173643
15062.82031 0.173673
15063.33984 0.173704
15063.87012 0.173734
15064.38965 0.173765
15064.91992 0.173796
15065.44043 0.173824
15065.96973 0.173853
15066.50000 0.173881
15067.01953 0.17391
15067.54980 0.173938
15068.07031 0.173966
15068.59961 0.173995
15069.12012 0.174023
15069.65039 0.174052
15070.16992 0.174079
15070.70020 0.174103
15071.23047 0.174128
15071.75000 0.174152
15072.28027 0.174177
15072.79980 0.174202
15073.33008 0.174226
15073.84961 0.174251
15074.37988 0.174275
15074.91016 0.1743
15075.42969 0.174316
15075.95996 0.17433
15076.48047 0.174344
15077.00977 0.174357
15077.53027 0.174372
15078.05957 0.174385
15078.58984 0.1744
15079.11035 0.174413
15079.63965 0.174427
15080.16016 0.174443
15080.69043 0.174461
15081.21973 0.174479
15081.74023 0.174497
15082.26953 0.174516
15082.79004 0.174534
15083.32031 0.174552
15083.84961 0.17457
15084.37012 0.174589
15084.90039 0.174607
15085.41992 0.174619
15085.95020 0.174628
15086.48047 0.174638
15087.00000 0.174648
15087.53027 0.174658
15088.04980 0.174668
15088.58008 0.174678
15089.11035 0.174688
15089.62988 0.174698
15090.16016 0.174706
15090.69043 0.174709
15091.20996 0.174713
15091.74023 0.174716
15092.25977 0.17472
15092.79004 0.174723
15093.32031 0.174727
15093.83984 0.17473
15094.37012 0.174734
15094.90039 0.174737
15095.41992 0.174749
15095.95020 0.174762
15096.48047 0.174776
15097.00000 0.17479
15097.53027 0.174803
15098.05957 0.174817
15098.58008 0.17483
15099.11035 0.174844
15099.63965 0.174857
15100.16016 0.174866
15100.69043 0.174864
15101.21973 0.174863
15101.74023 0.174861
15102.26953 0.174859
15102.79980 0.174857
15103.32031 0.174856
15103.84961 0.174854
15104.37988 0.174852
15104.90039 0.174851
15105.42969 0.174846
15105.95996 0.174841
15106.48047 0.174836
15107.00977 0.17483
15107.54004 0.174825
15108.05957 0.17482
15108.58984 0.174815
15109.12012 0.17481
15109.63965 0.174804
15110.16992 0.174802
15110.70020 0.174804
15111.23047 0.174807
15111.75000 0.174809
15112.28027 0.174812
15112.80957 0.174814
15113.33008 0.174816
15113.86035 0.174819
15114.38965 0.174821
15114.91992 0.174824
15115.44043 0.174814
15115.96973 0.174802
15116.50000 0.17479
15117.01953 0.174778
15117.54980 0.174766
15118.08008 0.174754
15118.61035 0.174742
15119.12988 0.17473
15119.66016 0.174718
15120.19043 0.174707
15120.70996 0.174697
15121.24023 0.174687
15121.76953 0.174677
15122.29980 0.174668
15122.82031 0.174658
15123.34961 0.174648
15123.87988 0.174638
15124.41016 0.174628
15124.92969 0.174619
15125.45996 0.174608
15125.99023 0.174597
15126.51953 0.174587
15127.04004 0.174576
15127.57031 0.174566
15128.09961 0.174555
15128.62988 0.174544
15129.16016 0.174534
15129.67969 0.174523
15130.20996 0.174509
15130.74023 0.174489
15131.26953 0.174469
15131.79004 0.174449
15132.32031 0.174429
15132.84961 0.174408
15133.37988 0.174388
15133.90039 0.174368
15134.42969 0.174348
15134.95996 0.174328
15135.49023 0.174314
15136.01953 0.174299
15136.54004 0.174285
15137.07031 0.174271
15137.59961 0.174257
15138.12988 0.174243
15138.66016 0.174229
15139.17969 0.174214
15139.70996 0.1742
15140.24023 0.174182
15140.76953 0.17416
15141.29980 0.174137
15141.82031 0.174114
15142.34961 0.174092
15142.87988 0.174069
15143.41016 0.174046
15143.94043 0.174024
15144.45996 0.174001
15144.99023 0.173978
15145.51953 0.17395
15146.04980 0.173922
15146.58008 0.173894
15147.11035 0.173866
15147.62988 0.173838
15148.16016 0.17381
15148.69043 0.173781
15149.21973 0.173753
15149.75000 0.173725
15150.28027 0.1737
15150.79980 0.173677
15151.33008 0.173653
15151.86035 0.17363
15152.38965 0.173607
15152.91992 0.173584
15153.45020 0.173561
15153.96973 0.173538
15154.50000 0.173515
15155.03027 0.173491
15155.55957 0.173457
15156.08984 0.173422
15156.62012 0.173387
15157.15039 0.173352
15157.66992 0.173318
15158.20020 0.173283
15158.73047 0.173248
15159.25977 0.173213
15159.79004 0.173178
15160.32031 0.173147
15160.84961 0.173118
15161.37988 0.173089
15161.90039 0.17306
15162.42969 0.17303
15162.95996 0.173001
15163.49023 0.172972
15164.01953 0.172943
15164.54980 0.172914
15165.08008 0.172884
15165.61035 0.172853
15166.12988 0.172822
15166.66016 0.172791
15167.19043 0.172759
15167.71973 0.172728
15168.25000 0.172697
15168.78027 0.172666
15169.30957 0.172634
15169.83984 0.172603
15170.37012 0.17257
15170.90039 0.172536
15171.41992 0.172503
15171.95020 0.172469
15172.48047 0.172435
15173.00977 0.172401
15173.54004 0.172367
15174.07031 0.172334
15174.59961 0.1723
15175.12988 0.172264
15175.66016 0.172224
15176.19043 0.172184
15176.71973 0.172144
15177.25000 0.172104
15177.78027 0.172064
15178.30957 0.172024
15178.83008 0.171984
15179.36035 0.171944
15179.88965 0.171904
15180.41992 0.171872
15180.95020 0.171841
15181.48047 0.171811
15182.00977 0.171781
15182.54004 0.17175
15183.07031 0.17172
15183.59961 0.171689
15184.12988 0.171659
15184.66016 0.171629
15185.19043 0.171596
15185.71973 0.171557
15186.25000 0.171519
15186.78027 0.171481
15187.30957 0.171443
15187.83984 0.171404
15188.37012 0.171366
15188.90039 0.171328
15189.42969 0.17129
15189.95996 0.171251
15190.49023 0.171217
15191.01953 0.171184
15191.54004 0.17115
15192.08008 0.171116
15192.59961 0.171083
15193.12988 0.171049
15193.66016 0.171015
15194.19043 0.170981
15194.71973 0.170948
15195.25000 0.170912
15195.78027 0.170874
15196.30957 0.170836
15196.83984 0.170798
15197.37012 0.17076
15197.90039 0.170722
15198.42969 0.170684
15198.95996 0.170646
15199.49023 0.170608
15200.01953 0.17057
15200.54980 0.170534
15201.08008 0.170499
15201.62012 0.170463
15202.15039 0.170428
15202.67969 0.170392
15203.20996 0.170357
15203.74023 0.170321
15204.26953 0.170286
15204.79980 0.17025
15205.33008 0.170217
15205.86035 0.170186
15206.38965 0.170154
15206.91992 0.170123
15207.45020 0.170091
15207.98047 0.17006
15208.50977 0.170028
15209.04004 0.169997
15209.57031 0.169965
15210.09961 0.169933
15210.62988 0.169898
15211.16016 0.169864
15211.69043 0.169829
15212.21973 0.169794
15212.75000 0.16976
15213.28027 0.169725
15213.80957 0.16969
15214.33984 0.169656
15214.87988 0.169621
15215.41016 0.169593
15215.94043 0.169567
15216.46973 0.169541
15217.00000 0.169515
15217.53027 0.169489
15218.05957 0.169463
15218.58984 0.169437
15219.12012 0.16941
15219.65039 0.169384
15220.17969 0.169357
15220.70996 0.169327
15221.24023 0.169297
15221.76953 0.169267
15222.30957 0.169237
15222.83984 0.169207
15223.37012 0.169178
15223.90039 0.169148
15224.42969 0.169118
15224.95996 0.169088
15225.49023 0.169066
15226.01953 0.169045
15226.54980 0.169024
15227.08008 0.169004
15227.62012 0.168983
15228.15039 0.168962
15228.67969 0.168941
15229.20996 0.16892
15229.74023 0.168899
15230.26953 0.168872
15230.79980 0.168839
15231.33008 0.168805
15231.87012 0.168772
15232.40039 0.168738
15232.92969 0.168705
15233.45996 0.168672
15233.99023 0.168638
15234.51953 0.168605
15235.04980 0.168573
15235.58008 0.168555
15236.12012 0.168538
15236.65039 0.16852
15237.17969 0.168502
15237.70996 0.168485
15238.24023 0.168467
15238.76953 0.16845
15239.29980 0.168432
15239.83008 0.168415
15240.37012 0.1684
15240.90039 0.168385
15241.42969 0.168372
15241.95996 0.168358
15242.49023 0.168344
15243.01953 0.16833
15243.55957 0.168316
15244.08984 0.168302
15244.62012 0.168288
15245.15039 0.168272
15245.67969 0.168253
15246.20996 0.168234
15246.75000 0.168215
15247.28027 0.168196
15247.80957 0.168177
15248.33984 0.168158
15248.87012 0.168139
15249.41016 0.16812
15249.94043 0.168101
15250.46973 0.168088
15251.00000 0.168077
15251.53027 0.168066
15252.05957 0.168054
15252.59961 0.168043
15253.12988 0.168032
15253.66016 0.168021
15254.19043 0.168009
15254.71973 0.167998
15255.25977 0.167985
15255.79004 0.167971
15256.32031 0.167957
15256.84961 0.167942
15257.37988 0.167928
15257.91992 0.167913
15258.45020 0.167899
15258.98047 0.167885
15259.50977 0.16787
15260.04980 0.167857
15260.58008 0.167853
15261.11035 0.167849
15261.63965 0.167846
15262.16992 0.167842
15262.70996 0.167838
15263.24023 0.167834
15263.76953 0.167831
15264.29980 0.167827
15264.83984 0.167823
15265.37012 0.16782
15265.90039 0.167816
15266.42969 0.167813
15266.96973 0.167809
15267.50000 0.167806
15268.03027 0.167802
15268.55957 0.167798
15269.09961 0.167795
15269.62988 0.167791
15270.16016 0.167789
15270.69043 0.167788
15271.23047 0.167788
15271.75977 0.167787
15272.29004 0.167786
15272.82031 0.167786
15273.36035 0.167785
15273.88965 0.167785
15274.41992 0.167784
15274.95996 0.167783
15275.49023 0.167781
15276.01953 0.167778
15276.54980 0.167775
15277.08984 0.167772
15277.62012 0.167769
15278.15039 0.167766
15278.67969 0.167763
15279.21973 0.16776
15279.75000 0.167757
15280.28027 0.167762
15280.82031 0.167772
15281.34961 0.167783
15281.87988 0.167794
15282.41992 0.167805
15282.95020 0.167816
15283.48047 0.167827
15284.00977 0.167838
15284.54980 0.167849
15285.08008 0.16786
15285.61035 0.167874
15286.15039 0.167888
15286.67969 0.167902
15287.20996 0.167916
15287.75000 0.16793
15288.28027 0.167944
15288.80957 0.167957
15289.34961 0.167971
15289.87988 0.167985
15290.41016 0.167993
15290.95020 0.168
15291.48047 0.168007
15292.00977 0.168013
15292.54004 0.16802
15293.08008 0.168026
15293.61035 0.168033
15294.15039 0.168039
15294.67969 0.168046
15295.20996 0.168058
15295.75000 0.168077
15296.28027 0.168097
15296.80957 0.168117
15297.34961 0.168136
15297.87988 0.168156
15298.41016 0.168176
15298.95020 0.168195
15299.48047 0.168215
15300.00977 0.168235
15300.54980 0.168244
15301.08008 0.168254
15301.61035 0.168264
15302.15039 0.168274
15302.67969 0.168284
15303.21973 0.168294
15303.75000 0.168303
15304.28027 0.168313
15304.82031 0.168323
15305.34961 0.168334
15305.87988 0.168345
15306.41992 0.168355
15306.95020 0.168366
15307.49023 0.168377
15308.01953 0.168388
15308.54980 0.168399
15309.08984 0.16841
15309.62012 0.168421
15310.16016 0.168434
15310.69043 0.168451
15311.21973 0.168469
15311.75977 0.168487
15312.29004 0.168505
15312.83008 0.168523
15313.36035 0.168541
15313.88965 0.168558
15314.42969 0.168576
15314.95996 0.168594
15315.50000 0.168601
15316.03027 0.168608
15316.55957 0.168614
15317.09961 0.168621
15317.62988 0.168627
15318.16992 0.168634
15318.70020 0.16864
15319.24023 0.168647
15319.76953 0.168654
15320.29980 0.168667
15320.83984 0.168686
15321.37012 0.168705
15321.91016 0.168724
15322.44043 0.168743
15322.98047 0.168762
15323.50977 0.16878
15324.04004 0.168799
15324.58008 0.168818
15325.11035 0.168836
15325.65039 0.168851
15326.17969 0.168865
15326.71973 0.16888
15327.25000 0.168894
15327.79004 0.168909
15328.32031 0.168924
15328.86035 0.168938
15329.38965 0.168953
15329.91992 0.168967
15330.45996 0.168974
15330.99023 0.16898
15331.53027 0.168986
15332.05957 0.168992
15332.59961 0.168997
15333.12988 0.169003
15333.66992 0.169009
15334.20020 0.169015
15334.74023 0.169021
15335.26953 0.169028
15335.80957 0.169038
15336.33984 0.169048
15336.87988 0.169058
15337.41016 0.169068
15337.95020 0.169077
15338.48047 0.169087
15339.01953 0.169097
15339.54980 0.169107
15340.08984 0.169115
15340.62012 0.169118
15341.16016 0.16912
15341.69043 0.169122
15342.23047 0.169124
15342.75977 0.169126
15343.29980 0.169128
15343.83008 0.16913
15344.37012 0.169132
15344.90039 0.169135
15345.44043 0.169131
15345.96973 0.169126
15346.50977 0.169122
15347.04004 0.169117
15347.58008 0.169112
15348.11035 0.169107
15348.65039 0.169102
15349.17969 0.169097
15349.71973 0.169093
15350.25000 0.169086
15350.79004 0.169077
15351.33008 0.169069
15351.86035 0.16906
15352.40039 0.169051
15352.92969 0.169042
15353.46973 0.169034
15354.00000 0.169025
15354.54004 0.169016
15355.07031 0.169007
15355.61035 0.168991
15356.13965 0.168976
15356.67969 0.168961
15357.21973 0.168945
15357.75000 0.16893
15358.29004 0.168915
15358.82031 0.168899
15359.36035 0.168884
15359.88965 0.168869
15360.42969 0.168836
15360.96973 0.168799
15361.50000 0.168762
15362.04004 0.168724
15362.57031 0.168687
15363.11035 0.16865
15363.63965 0.168613
15364.17969 0.168576
15364.71973 0.168539
15365.25000 0.168502
15365.79004 0.168464
15366.32031 0.168427
15366.86035 0.168389
15367.40039 0.168352
15367.92969 0.168314
15368.46973 0.168277
15369.00000 0.168239
15369.54004 0.168202
15370.08008 0.168161
15370.61035 0.168103
15371.15039 0.168045
15371.67969 0.167987
15372.21973 0.167929
15372.75977 0.167871
15373.29004 0.167813
15373.83008 0.167755
15374.36035 0.167697
15374.90039 0.167638
15375.44043 0.167568
15375.96973 0.167494
15376.50977 0.167421
15377.04980 0.167348
15377.58008 0.167274
15378.12012 0.167201
15378.65039 0.167128
15379.19043 0.167054
15379.73047 0.166981
15380.25977 0.166898
15380.79980 0.166805
15381.33984 0.166711
15381.87012 0.166618
15382.41016 0.166525
15382.95020 0.166432
15383.48047 0.166338
15384.01953 0.166245
15384.55957 0.166152
15385.08984 0.166054
15385.62988 0.165938
15386.16992 0.165821
15386.70020 0.165704
15387.24023 0.165588
15387.78027 0.165471
15388.30957 0.165355
15388.84961 0.165238
15389.38965 0.165121
15389.91992 0.165005
15390.45996 0.164867
15391.00000 0.164725
15391.53027 0.164584
15392.07031 0.164442
15392.61035 0.164301
15393.13965 0.16416
15393.67969 0.164018
15394.21973 0.163876
15394.75000 0.163735
15395.29004 0.163585
15395.83008 0.163428
15396.36035 0.163271
15396.90039 0.163114
15397.44043 0.162958
15397.98047 0.162801
15398.50977 0.162644
15399.04980 0.162487
15399.58984 0.16233
15400.12012 0.162168
15400.66016 0.161986
15401.20020 0.161804
15401.73047 0.161622
15402.26953 0.161439
15402.80957 0.161257
15403.34961 0.161075
15403.87988 0.160893
15404.41992 0.160711
15404.95996 0.160529
15405.50000 0.160328
15406.03027 0.160125
15406.57031 0.159921
15407.11035 0.159719
15407.63965 0.159516
15408.17969 0.159312
15408.71973 0.159109
15409.25977 0.158906
15409.79004 0.158703
15410.33008 0.158477
15410.87012 0.158238
15411.41016 0.157999
15411.94043 0.15776
15412.48047 0.157521
15413.01953 0.157281
15413.55957 0.157042
15414.08984 0.156802
15414.62988 0.156563
15415.16992 0.156314
15415.70996 0.156047
15416.25000 0.155778
15416.78027 0.155511
15417.32031 0.155242
15417.86035 0.154975
15418.40039 0.154706
15418.92969 0.154438
15419.46973 0.15417
15420.00977 0.153901
15420.54980 0.15359
15421.08008 0.153279
15421.62012 0.152967
15422.16016 0.152656
15422.70020 0.152344
15423.24023 0.152033
15423.76953 0.151722
15424.30957 0.15141
15424.84961 0.151098
15425.38965 0.150775
15425.92969 0.150448
15426.45996 0.15012
15427.00000 0.149792
15427.54004 0.149465
15428.08008 0.149137
15428.62012 0.14881
15429.15039 0.148482
15429.69043 0.148154
15430.23047 0.14782
15430.76953 0.147478
15431.30957 0.147136
15431.83984 0.146794
15432.37988 0.146452
15432.91992 0.146109
15433.45996 0.145767
15434.00000 0.145424
15434.54004 0.145082
15435.07031 0.144734
15435.61035 0.144354
15436.15039 0.143975
15436.69043 0.143594
15437.23047 0.143214
15437.76953 0.142834
15438.29980 0.142453
15438.83984 0.142073
15439.37988 0.141693
15439.91992 0.141312
15440.45996 0.140917
15441.00000 0.140518
15441.54004 0.140121
15442.07031 0.139722
15442.61035 0.139324
15443.15039 0.138926
15443.69043 0.138528
15444.23047 0.138129
15444.76953 0.137731
15445.30957 0.137309
15445.83984 0.136869
15446.37988 0.136429
15446.91992 0.135988
15447.45996 0.135549
15448.00000 0.135108
15448.54004 0.134668
15449.08008 0.134227
15449.62012 0.133787
15450.15039 0.133336
15450.69043 0.132858
15451.23047 0.13238
15451.76953 0.131903
15452.30957 0.131425
15452.84961 0.130947
15453.38965 0.130468
15453.92969 0.12999
15454.46973 0.129512
15455.00000 0.129034
15455.54004 0.128554
15456.08008 0.128074
15456.62012 0.127594
15457.16016 0.127114
15457.70020 0.126634
15458.24023 0.126154
15458.78027 0.125674
15459.32031 0.125194
15459.86035 0.124714
15460.40039 0.12424
15460.92969 0.123768
15461.46973 0.123295
15462.00977 0.122822
15462.54980 0.12235
15463.08984 0.121877
15463.62988 0.121405
15464.16992 0.120932
15464.70996 0.120459
15465.25000 0.119979
15465.79004 0.119488
15466.33008 0.118997
15466.87012 0.118507
15467.41016 0.118015
15467.95020 0.117525
15468.49023 0.117034
15469.03027 0.116543
15469.55957 0.116052
15470.09961 0.115555
15470.63965 0.115038
15471.17969 0.11452
15471.71973 0.114003
15472.25977 0.113485
15472.79980 0.112968
15473.33984 0.112449
15473.87988 0.111931
15474.41992 0.111414
15474.95996 0.110895
15475.50000 0.11039
15476.04004 0.109886
15476.58008 0.109381
15477.12012 0.108876
15477.66016 0.108372
15478.20020 0.107867
15478.74023 0.107362
15479.28027 0.106857
15479.82031 0.106352
15480.36035 0.105833
15480.90039 0.105305
15481.44043 0.104778
15481.98047 0.10425
15482.51953 0.103722
15483.05957 0.103195
15483.59961 0.102667
15484.13965 0.102139
15484.67969 0.101611
15485.21973 0.101075
15485.75977 0.100527
15486.29980 0.099979
15486.83984 0.09943
15487.37988 0.098882
15487.91992 0.098334
15488.45996 0.097785
15489.00000 0.097237
15489.54004 0.096687
15490.08008 0.096146
15490.62012 0.095648
15491.16016 0.09515
15491.70020 0.094652
15492.24023 0.094153
15492.78027 0.093655
15493.32031 0.093157
15493.86035 0.092658
15494.40039 0.09216
15494.94043 0.091661
15495.48047 0.091171
15496.01953 0.090682
15496.55957 0.090192
15497.09961 0.089704
15497.63965 0.089215
15498.19043 0.088725
15498.73047 0.088236
15499.26953 0.087746
15499.80957 0.087257
15500.34961 0.08677
15500.88965 0.086283
15501.42969 0.085798
15501.96973 0.085311
15502.50977 0.084826
15503.04980 0.08434
15503.58984 0.083853
15504.12988 0.083368
15504.66992 0.082881
15505.20996 0.082397
15505.75000 0.081917
15506.29004 0.081437
15506.83984 0.080957
15507.37988 0.080477
15507.91992 0.079996
15508.45996 0.079516
15509.00000 0.079036
15509.54004 0.078556
15510.08008 0.078075
15510.62012 0.077588
15511.16016 0.077101
15511.70020 0.076614
15512.25000 0.076127
15512.79004 0.07564
15513.33008 0.075153
15513.87012 0.074666
15514.41016 0.074179
15514.95020 0.073692
15515.49023 0.07323
15516.03027 0.07277
15516.57031 0.07231
15517.12012 0.071851
15517.66016 0.071392
15518.20020 0.070932
15518.74023 0.070473
15519.28027 0.070013
15519.82031 0.069554
15520.36035 0.069106
15520.90039 0.068665
15521.45020 0.068222
15521.99023 0.067781
15522.53027 0.067339
15523.07031 0.066897
15523.61035 0.066455
15524.15039 0.066013
15524.69043 0.065571
15525.23047 0.065147
15525.78027 0.064743
15526.32031 0.064341
15526.86035 0.063937
15527.40039 0.063535
15527.94043 0.063131
15528.48047 0.062729
15529.03027 0.062325
15529.57031 0.061922
15530.11035 0.061522
15530.65039 0.06113
15531.19043 0.060738
15531.73047 0.060348
15532.28027 0.059956
15532.82031 0.059564
15533.36035 0.059174
15533.90039 0.058782
15534.44043 0.05839
15534.98047 0.057999
15535.53027 0.057627
15536.07031 0.057255
15536.61035 0.056883
15537.15039 0.056511
15537.69043 0.056139
15538.24023 0.055767
15538.78027 0.055395
15539.32031 0.055023
15539.86035 0.054651
15540.40039 0.054284
15540.95020 0.053919
15541.49023 0.053553
15542.03027 0.053188
15542.57031 0.052822
15543.11035 0.052457
15543.66016 0.052092
15544.20020 0.051726
15544.74023 0.051361
15545.28027 0.051
15545.82031 0.050643
15546.37012 0.050286
15546.91016 0.04993
15547.45020 0.049574
15547.99023 0.049217
15548.54004 0.04886
15549.08008 0.048504
15549.62012 0.048148
15550.16016 0.047802
15550.70020 0.047484
15551.25000 0.047166
15551.79004 0.046848
15552.33008 0.04653
15552.87012 0.046211
15553.41992 0.045893
15553.95996 0.045575
15554.50000 0.045257
15555.04004 0.044939
15555.58984 0.044634
15556.12988 0.044328
15556.66992 0.044023
15557.20996 0.043717
15557.75977 0.043412
15558.29980 0.043106
15558.83984 0.042801
15559.37988 0.042495
15559.92969 0.04219
15560.46973 0.041912
15561.00977 0.04164
15561.54980 0.041367
15562.09961 0.041094
15562.63965 0.040822
15563.17969 0.040549
15563.73047 0.040276
15564.26953 0.040003
15564.80957 0.039731
15565.34961 0.039465
15565.90039 0.039203
15566.44043 0.038942
15566.98047 0.03868
15567.53027 0.038418
15568.07031 0.038156
15568.61035 0.037895
15569.16016 0.037633
15569.70020 0.037371
15570.24023 0.037113
15570.78027 0.03686
15571.33008 0.036608
15571.87012 0.036355
15572.41016 0.036102
15572.95996 0.035849
15573.50000 0.035596
15574.04004 0.035343
15574.58984 0.03509
15575.12988 0.034841
15575.66992 0.034603
15576.20996 0.034365
15576.75977 0.034126
15577.29980 0.033888
15577.83984 0.03365
15578.38965 0.033412
15578.92969 0.033174
15579.46973 0.032935
15580.01953 0.032697
15580.55957 0.032462
15581.11035 0.032226
15581.65039 0.031991
15582.19043 0.031756
15582.74023 0.03152
15583.28027 0.031285
15583.82031 0.03105
15584.37012 0.030814
15584.91016 0.030579
15585.45020 0.030367
15586.00000 0.030161
15586.54004 0.029954
15587.08008 0.029747
15587.62988 0.02954
15588.16992 0.029333
15588.70996 0.029126
15589.25977 0.028919
15589.79980 0.028712
15590.34961 0.028519
15590.88965 0.028333
15591.42969 0.028147
15591.98047 0.027961
15592.51953 0.027775
15593.05957 0.027589
15593.61035 0.027403
15594.15039 0.027217
15594.70020 0.027031
15595.24023 0.026847
15595.78027 0.026668
15596.33008 0.026488
15596.87012 0.026308
15597.41992 0.026128
15597.95996 0.025948
15598.50000 0.025768
15599.04980 0.025588
15599.58984 0.025409
15600.13965 0.025233
15600.67969 0.025068
15601.21973 0.024903
15601.76953 0.024739
15602.30957 0.024575
15602.86035 0.02441
15603.40039 0.024246
15603.95020 0.024081
15604.49023 0.023917
15605.03027 0.023752
15605.58008 0.023593
15606.12012 0.023434
15606.66992 0.023275
15607.20996 0.023116
15607.75000 0.022957
15608.29980 0.022798
15608.83984 0.022638
15609.38965 0.022479
15609.92969 0.02232
15610.48047 0.022165
15611.01953 0.022011
15611.57031 0.021857
15612.11035 0.021703
15612.65039 0.021549
15613.20020 0.021395
15613.74023 0.021241
15614.29004 0.021087
15614.83008 0.020932
15615.37988 0.020785
15615.91992 0.020641
15616.46973 0.020497
15617.00977 0.020352
15617.55957 0.020208
15618.09961 0.020064
15618.65039 0.01992
15619.19043 0.019775
15619.73047 0.019631
15620.28027 0.019497
15620.82031 0.019373
15621.37012 0.019249
15621.91016 0.019125
15622.45996 0.019001
15623.00000 0.018877
15623.54980 0.018753
15624.08984 0.018628
15624.63965 0.018504
15625.17969 0.018384
15625.73047 0.01827
15626.26953 0.018157
15626.82031 0.018043
15627.36035 0.01793
15627.91016 0.017816
15628.45020 0.017702
15629.00000 0.017589
15629.54004 0.017475
15630.08984 0.017363
15630.62988 0.017259
15631.17969 0.017154
15631.71973 0.01705
15632.26953 0.016945
15632.80957 0.016841
15633.36035 0.016736
15633.91016 0.016632
15634.45020 0.016527
15635.00000 0.016423
15635.54004 0.016316
15636.08984 0.01621
15636.62988 0.016103
15637.17969 0.015996
15637.71973 0.01589
15638.26953 0.015783
15638.80957 0.015676
15639.36035 0.01557
15639.90039 0.015463
15640.45020 0.015362
15640.99023 0.015262
15641.54004 0.015163
15642.08984 0.015063
15642.62988 0.014963
15643.17969 0.014863
15643.71973 0.014763
15644.26953 0.014664
15644.80957 0.014564
15645.36035 0.014464
15645.91016 0.014364
15646.45020 0.014265
15647.00000 0.014165
15647.54004 0.014066
15648.08984 0.013966
15648.62988 0.013866
15649.17969 0.013767
15649.71973 0.013667
15650.26953 0.013577
15650.82031 0.013497
15651.36035 0.013416
15651.91016 0.013336
15652.45020 0.013255
15653.00000 0.013175
15653.54980 0.013094
15654.08984 0.013014
15654.63965 0.012934
15655.17969 0.012854
15655.73047 0.012777
15656.28027 0.012699
15656.82031 0.012621
15657.37012 0.012544
15657.91016 0.012466
15658.45996 0.012389
15659.00977 0.012311
15659.54980 0.012233
15660.09961 0.012157
15660.63965 0.012082
15661.19043 0.012008
15661.74023 0.011934
15662.28027 0.01186
15662.83008 0.011785
15663.37988 0.011711
15663.91992 0.011637
15664.46973 0.011563
15665.00977 0.011489
15665.55957 0.011419
15666.11035 0.01135
15666.65039 0.01128
15667.20020 0.011211
15667.75000 0.011141
15668.29004 0.011072
15668.83984 0.011002
15669.38965 0.010933
15669.92969 0.010863
15670.48047 0.010797
15671.03027 0.01073
15671.57031 0.010664
15672.12012 0.010598
15672.66992 0.010532
15673.20996 0.010465
15673.75977 0.010399
15674.30957 0.010333
15674.84961 0.010266
15675.40039 0.010202
15675.95020 0.010137
15676.49023 0.010073
15677.04004 0.010009
15677.58984 0.009944
15678.12988 0.00988
15678.67969 0.009816
15679.23047 0.009751
15679.76953 0.009687
15680.32031 0.009628
15680.87012 0.009573
15681.41016 0.009518
15681.95996 0.009463
15682.50977 0.009408
15683.04980 0.009353
15683.59961 0.009298
15684.15039 0.009243
15684.70020 0.009187
15685.24023 0.009131
15685.79004 0.009073
15686.33984 0.009015
15686.87988 0.008957
15687.42969 0.008899
15687.98047 0.008841
15688.51953 0.008783
15689.07031 0.008725
15689.62012 0.008667
15690.16992 0.008614
15690.70996 0.00857
15691.25977 0.008527
15691.80957 0.008484
15692.36035 0.008441
15692.90039 0.008398
15693.45020 0.008355
15694.00000 0.008312
15694.54004 0.008269
15695.08984 0.008225
15695.63965 0.008172
15696.19043 0.00812
15696.73047 0.008067
15697.28027 0.008015
15697.83008 0.007962
15698.37988 0.00791
15698.91992 0.007857
15699.46973 0.007805
15700.01953 0.007753
15700.57031 0.007711
15701.11035 0.00767
15701.66016 0.007628
15702.20996 0.007587
15702.75977 0.007545
15703.29980 0.007503
15703.84961 0.007462
15704.40039 0.00742
15704.95020 0.007379
15705.50000 0.007336
15706.04004 0.007293
15706.58984 0.00725
15707.13965 0.007206
15707.69043 0.007163
15708.23047 0.00712
15708.78027 0.007077
15709.33008 0.007034
15709.87988 0.006991
15710.42969 0.006951
15710.96973 0.006912
15711.51953 0.006873
15712.07031 0.006835
15712.62012 0.006796
15713.16992 0.006757
15713.70996 0.006718
15714.25977 0.006679
15714.80957 0.00664
15715.36035 0.0066
15715.91016 0.00656
15716.45020 0.00652
15717.00000 0.006479
15717.54980 0.006439
15718.09961 0.006399
15718.65039 0.006358
15719.20020 0.006318
15719.74023 0.006278
15720.29004 0.00624
15720.83984 0.006204
15721.38965 0.006168
15721.94043 0.006133
15722.49023 0.006097
15723.03027 0.006062
15723.58008 0.006026
15724.12988 0.00599
15724.67969 0.005955
15725.23047 0.005922
15725.78027 0.005892
15726.32031 0.005862
15726.87012 0.005833
15727.41992 0.005803
15727.96973 0.005773
15728.51953 0.005744
15729.07031 0.005714
15729.62012 0.005684
15730.16016 0.005653
15730.70996 0.00562
15731.25977 0.005586
15731.80957 0.005553
15732.36035 0.005519
15732.91016 0.005486
15733.45996 0.005452
15734.00000 0.005418
15734.54980 0.005385
15735.09961 0.005353
15735.65039 0.005329
15736.20020 0.005304
15736.75000 0.00528
15737.29980 0.005256
15737.84961 0.005232
15738.38965 0.005207
15738.94043 0.005183
15739.49023 0.005159
15740.04004 0.005135
15740.58984 0.00511
15741.13965 0.005086
15741.69043 0.005062
15742.24023 0.005038
15742.79004 0.005014
15743.33984 0.00499
15743.87988 0.004966
15744.42969 0.004941
15744.98047 0.004917
15745.53027 0.004889
15746.08008 0.004861
15746.62988 0.004833
15747.17969 0.004804
15747.73047 0.004776
15748.28027 0.004748
15748.83008 0.00472
15749.37988 0.004691
15749.92969 0.004663
15750.46973 0.004639
15751.01953 0.004615
15751.57031 0.004591
15752.12012 0.004567
15752.66992 0.004543
15753.21973 0.004519
15753.76953 0.004495
15754.32031 0.004472
15754.87012 0.004448
15755.41992 0.004424
15755.96973 0.0044
15756.51953 0.004377
15757.07031 0.004353
15757.62012 0.004329
15758.16992 0.004305
15758.71973 0.004282
15759.26953 0.004258
15759.82031 0.004234
15760.37012 0.00421
15760.91992 0.004187
15761.45996 0.004163
15762.00977 0.00414
15762.55957 0.004116
15763.11035 0.004092
15763.66016 0.004069
15764.20996 0.004045
15764.75977 0.004022
15765.30957 0.004
15765.86035 0.003981
15766.41016 0.003961
15766.95996 0.003942
15767.50977 0.003922
15768.05957 0.003903
15768.61035 0.003883
15769.16016 0.003864
15769.70996 0.003844
15770.25977 0.003824
15770.80957 0.003804
15771.36035 0.003784
15771.91016 0.003764
15772.45996 0.003743
15773.00977 0.003723
15773.55957 0.003703
15774.11035 0.003683
15774.66016 0.003663
15775.20996 0.003645
15775.75977 0.003631
15776.30957 0.003618
15776.86035 0.003604
15777.41016 0.00359
15777.95996 0.003576
15778.50977 0.003563
15779.07031 0.003549
15779.62012 0.003535
15780.16992 0.003518
15780.71973 0.003493
15781.26953 0.003469
15781.82031 0.003444
15782.37012 0.003419
15782.91992 0.003395
15783.46973 0.00337
15784.01953 0.003345
15784.57031 0.00332
15785.12012 0.003299
15785.66992 0.003288
15786.21973 0.003277
15786.76953 0.003266
15787.32031 0.003255
15787.87012 0.003245
15788.41992 0.003234
15788.96973 0.003223
15789.51953 0.003212
15790.08008 0.003201
15790.62988 0.003185
15791.17969 0.00317
15791.73047 0.003154
15792.28027 0.003139
15792.83008 0.003123
15793.37988 0.003108
15793.92969 0.003093
15794.48047 0.003077
15795.03027 0.003062
15795.58008 0.003045
15796.12988 0.003029
15796.67969 0.003013
15797.24023 0.002996
15797.79004 0.00298
15798.33984 0.002964
15798.88965 0.002947
15799.44043 0.002931
15799.99023 0.002915
15800.54004 0.0029
15801.08984 0.002886
15801.63965 0.002872
15802.20020 0.002857
15802.75000 0.002843
15803.29980 0.002829
15803.84961 0.002814
15804.40039 0.0028
15804.95020 0.002786
15805.50000 0.002776
15806.04980 0.002767
15806.59961 0.002758
15807.16016 0.002749
15807.70996 0.00274
15808.25977 0.002731
15808.80957 0.002722
15809.36035 0.002713
15809.91016 0.002704
15810.45996 0.002688
15811.01953 0.002671
15811.57031 0.002653
15812.12012 0.002636
15812.66992 0.002619
15813.21973 0.002602
15813.76953 0.002585
15814.32031 0.002567
15814.87988 0.00255
15815.42969 0.002536
15815.98047 0.002523
15816.53027 0.00251
15817.08008 0.002496
15817.62988 0.002483
15818.19043 0.00247
15818.74023 0.002456
15819.29004 0.002443
15819.83984 0.00243
15820.38965 0.002421
15820.94043 0.002415
15821.50000 0.002408
15822.04980 0.002401
15822.59961 0.002395
15823.15039 0.002388
15823.70020 0.002381
15824.25000 0.002375
15824.80957 0.002368
15825.36035 0.002359
15825.91016 0.00235
15826.45996 0.00234
15827.00977 0.002331
15827.57031 0.002321
15828.12012 0.002312
15828.66992 0.002302
15829.21973 0.002293
15829.78027 0.002283
15830.33008 0.002272
15830.87988 0.00226
15831.42969 0.002248
15831.98047 0.002236
15832.54004 0.002224
15833.08984 0.002212
15833.63965 0.0022
15834.19043 0.002188
15834.74023 0.002176
15835.29980 0.002165
15835.84961 0.002155
15836.40039 0.002145
15836.95020 0.002136
15837.50977 0.002126
15838.05957 0.002116
15838.61035 0.002106
15839.16016 0.002096
15839.71973 0.002086
15840.26953 0.002075
15840.82031 0.002063
15841.37012 0.002051
15841.92969 0.00204
15842.48047 0.002028
15843.03027 0.002016
15843.58008 0.002004
15844.13965 0.001992
15844.69043 0.00198
15845.24023 0.00197
15845.79004 0.001963
15846.34961 0.001955
15846.90039 0.001948
15847.45020 0.00194
15848.00000 0.001932
15848.55957 0.001925
15849.11035 0.001917
15849.66016 0.00191
15850.20996 0.001902
15850.76953 0.001895
15851.32031 0.001887
15851.87012 0.00188
15852.42969 0.001873
15852.98047 0.001865
15853.53027 0.001858
15854.08008 0.001851
15854.63965 0.001844
15855.19043 0.001836
15855.74023 0.001826
15856.29980 0.001817
15856.84961 0.001808
15857.40039 0.001799
15857.95996 0.00179
15858.50977 0.001781
15859.05957 0.001771
15859.62012 0.001762
15860.16992 0.001754
15860.71973 0.001747
15861.26953 0.001741
15861.83008 0.001734
15862.37988 0.001727
15862.92969 0.001721
15863.49023 0.001714
15864.04004 0.001707
15864.58984 0.001701
15865.15039 0.001695
15865.70020 0.00169
15866.25000 0.001686
15866.80957 0.001682
15867.36035 0.001677
15867.91016 0.001673
15868.46973 0.001668
15869.01953 0.001664
15869.57031 0.00166
15870.12988 0.001654
15870.67969 0.001644
15871.24023 0.001634
15871.79004 0.001624
15872.33984 0.001614
15872.90039 0.001604
15873.45020 0.001593
15874.00000 0.001583
15874.55957 0.001573
15875.11035 0.001563
15875.66016 0.001555
15876.21973 0.001546
15876.76953 0.001538
15877.33008 0.001529
15877.87988 0.00152
15878.42969 0.001512
15878.99023 0.001503
15879.54004 0.001494
15880.08984 0.001487
15880.65039 0.001485
15881.20020 0.001483
15881.75977 0.001481
15882.30957 0.001479
15882.86035 0.001476
15883.41992 0.001474
15883.96973 0.001472
15884.53027 0.00147
15885.08008 0.001467
15885.62988 0.001461
15886.19043 0.001455
15886.74023 0.001448
15887.29004 0.001442
15887.84961 0.001435
15888.40039 0.001429
15888.95996 0.001423
15889.50977 0.001416
15890.07031 0.00141
15890.62012 0.001402
15891.16992 0.001395
15891.73047 0.001387
15892.28027 0.001379
15892.83984 0.001372
15893.38965 0.001364
15893.95020 0.001357
15894.50000 0.001349
15895.04980 0.001342
15895.61035 0.001342
15896.16016 0.001342
15896.71973 0.001342
15897.26953 0.001342
15897.83008 0.001342
15898.37988 0.001342
15898.94043 0.001341
15899.49023 0.001341
15900.04004 0.001341
15900.59961 0.001333
15901.15039 0.001325
15901.70996 0.001317
15902.25977 0.001309
15902.82031 0.001302
15903.37012 0.001294
15903.92969 0.001286
15904.48047 0.001278
15905.04004 0.001271
15905.58984 0.001264
15906.15039 0.001258
15906.70020 0.001252
15907.25000 0.001245
15907.80957 0.001239
15908.36035 0.001232
15908.91992 0.001226
15909.46973 0.00122
15910.03027 0.001213
15910.58008 0.001209
15911.13965 0.001204
15911.69043 0.001199
15912.25000 0.001195
15912.79980 0.00119
15913.36035 0.001185
15913.91016 0.00118
15914.46973 0.001176
15915.01953 0.001171
15915.58008 0.001167
15916.12988 0.001162
15916.69043 0.001158
15917.24023 0.001154
15917.79980 0.001149
15918.34961 0.001145
15918.91016 0.001141
15919.45996 0.001137
15920.01953 0.001132
15920.58008 0.001131
15921.12988 0.00113
15921.69043 0.001128
15922.24023 0.001127
15922.79980 0.001126
15923.34961 0.001125
15923.91016 0.001123
15924.45996 0.001122
15925.01953 0.00112
15925.57031 0.001112
15926.12988 0.001104
15926.67969 0.001095
15927.24023 0.001087
15927.79004 0.001079
15928.34961 0.00107
15928.91016 0.001062
15929.45996 0.001053
15930.01953 0.001045
15930.57031 0.001043
15931.12988 0.00104
15931.67969 0.001038
15932.24023 0.001036
15932.79004 0.001033
15933.34961 0.001031
15933.91016 0.001028
15934.45996 0.001026
15935.01953 0.001023
15935.57031 0.00102
15936.12988 0.001016
15936.69043 0.001012
15937.24023 0.001008
15937.79980 0.001004
15938.34961 0.001
15938.91016 0.000996
15939.45996 0.000992
15940.01953 0.000988
15940.58008 0.000987
15941.12988 0.000985
15941.69043 0.000984
15942.24023 0.000982
15942.79980 0.00098
15943.36035 0.000979
15943.91016 0.000977
15944.46973 0.000976
15945.01953 0.000974
15945.58008 0.000966
15946.13965 0.000959
15946.69043 0.000952
15947.25000 0.000944
15947.80957 0.000937
15948.36035 0.00093
15948.91992 0.000922
15949.46973 0.000915
15950.03027 0.000908
15950.58984 0.000908
15951.13965 0.000909
15951.70020 0.000909
15952.25977 0.000909
15952.80957 0.00091
15953.37012 0.00091
15953.91992 0.000911
15954.48047 0.000911
15955.04004 0.000911
15955.58984 0.000907
15956.15039 0.000903
15956.70996 0.000899
15957.25977 0.000895
15957.82031 0.000891
15958.37988 0.000887
15958.92969 0.000883
15959.49023 0.000879
15960.04980 0.000875
15960.59961 0.000868
15961.16016 0.000861
15961.71973 0.000854
15962.26953 0.000847
15962.83008 0.00084
15963.38965 0.000833
15963.94043 0.000826
15964.50000 0.000819
15965.05957 0.000812
15965.61035 0.000808
15966.16992 0.000804
15966.73047 0.000801
15967.28027 0.000797
15967.83984 0.000793
15968.40039 0.000789
15968.95996 0.000785
15969.50977 0.000782
15970.07031 0.000778
15970.62988 0.000777
15971.17969 0.000776
15971.74023 0.000775
15972.29980 0.000774
15972.84961 0.000773
15973.41016 0.000773
15973.96973 0.000772
15974.53027 0.000771
15975.08008 0.00077
15975.63965 0.000771
15976.20020 0.000772
15976.75000 0.000773
15977.30957 0.000774
15977.87012 0.000775
15978.42969 0.000776
15978.98047 0.000777
15979.54004 0.000778
15980.09961 0.000778
15980.66016 0.000775
15981.20996 0.000772
15981.76953 0.000769
15982.33008 0.000766
15982.87988 0.000763
15983.44043 0.000759
15984.00000 0.000756
15984.55957 0.000753
15985.11035 0.00075
15985.66992 0.000749
15986.23047 0.000748
15986.79004 0.000748
15987.33984 0.000747
15987.90039 0.000746
15988.45996 0.000745
15989.01953 0.000744
15989.58008 0.000743
15990.12988 0.00074
15990.69043 0.000732
15991.25000 0.000724
15991.80957 0.000716
15992.36035 0.000708
15992.91992 0.0007
15993.48047 0.000692
15994.04004 0.000684
15994.58984 0.000676
15995.15039 0.00067
15995.70996 0.000672
15996.26953 0.000673
15996.83008 0.000674
15997.37988 0.000675
15997.94043 0.000677
15998.50000 0.000678
15999.05957 0.000679
15999.62012 0.00068
16000.16992 0.000683
16000.73047 0.000688
16001.29004 0.000694
16001.84961 0.000699
16002.41016 0.000705
16002.95996 0.00071
16003.51953 0.000716
16004.08008 0.000721
16004.63965 0.000727
16005.20020 0.000727
16005.75000 0.000717
16006.30957 0.000706
16006.87012 0.000696
16007.42969 0.000686
16007.99023 0.000676
16008.54980 0.000666
16009.09961 0.000656
16009.66016 0.000646
16010.21973 0.000639
16010.78027 0.000636
16011.33984 0.000634
16011.90039 0.000631
16012.45996 0.000629
16013.00977 0.000626
16013.57031 0.000624
16014.12988 0.000621
16014.69043 0.000618
16015.25000 0.000616
16015.80957 0.000614
16016.36035 0.000611
16016.91992 0.000609
16017.48047 0.000607
16018.04004 0.000605
16018.59961 0.000602
16019.16016 0.0006
16019.71973 0.000598
16020.28027 0.000595
16020.83008 0.000591
16021.38965 0.000587
16021.95020 0.000583
16022.50977 0.000579
16023.07031 0.000576
16023.62988 0.000572
16024.19043 0.000568
16024.75000 0.000564
16025.29980 0.000563
16025.86035 0.000563
16026.41992 0.000564
16026.98047 0.000565
16027.54004 0.000566
16028.09961 0.000567
16028.66016 0.000567
16029.21973 0.000568
16029.78027 0.000569
16030.33008 0.000567
16030.88965 0.000564
16031.45020 0.000561
16032.00977 0.000557
16032.57031 0.000554
16033.12988 0.000551
16033.69043 0.000547
16034.25000 0.000544
16034.80957 0.000541
16035.37012 0.000539
16035.92969 0.000539
16036.49023 0.000538
16037.04980 0.000537
16037.59961 0.000536
16038.16016 0.000536
16038.71973 0.000535
16039.28027 0.000534
16039.83984 0.000534
16040.40039 0.000532
16040.95996 0.00053
16041.51953 0.000529
16042.08008 0.000527
16042.63965 0.000525
16043.20020 0.000524
16043.75977 0.000522
16044.32031 0.00052
16044.87988 0.000519
16045.44043 0.000519
16046.00000 0.00052
16046.55957 0.000521
16047.12012 0.000522
16047.67969 0.000523
16048.24023 0.000524
16048.79004 0.000525
16049.34961 0.000526
16049.91992 0.000527
16050.46973 0.000527
16051.03027 0.000526
16051.58984 0.000525
16052.15039 0.000524
16052.70996 0.000523
16053.26953 0.000522
16053.83008 0.00052
16054.38965 0.000519
16054.95020 0.000518
16055.50977 0.000514
16056.07031 0.00051
16056.62988 0.000505
16057.19043 0.000501
16057.75000 0.000497
16058.30957 0.000492
16058.87012 0.000488
16059.42969 0.000483
16059.99023 0.000479
16060.54980 0.000477
16061.11035 0.000476
16061.66992 0.000474
16062.23047 0.000473
16062.79004 0.000471
16063.34961 0.00047
16063.91992 0.000468
16064.46973 0.000467
16065.04004 0.000466
16065.59961 0.000469
16066.16016 0.000472
16066.71973 0.000475
16067.28027 0.000479
16067.83984 0.000482
16068.40039 0.000485
16068.95996 0.000488
16069.51953 0.000492
16070.08008 0.000494
16070.63965 0.000492
16071.20020 0.00049
16071.75977 0.000488
16072.32031 0.000486
16072.87988 0.000484
16073.44043 0.000481
16074.00000 0.000479
16074.55957 0.000477
16075.12012 0.000474
16075.67969 0.000469
16076.25000 0.000464
16076.80957 0.000458
16077.37012 0.000453
16077.92969 0.000447
16078.49023 0.000442
16079.04980 0.000436
16079.61035 0.000431
16080.16992 0.000426
16080.73047 0.000424
16081.29004 0.000421
16081.84961 0.000418
16082.41016 0.000415
16082.96973 0.000412
16083.54004 0.000409
16084.09961 0.000406
16084.66016 0.000403
16085.21973 0.000402
16085.78027 0.000405
16086.33984 0.000408
16086.90039 0.000411
16087.45996 0.000414
16088.01953 0.000417
16088.58008 0.000419
16089.15039 0.000422
16089.70996 0.000425
16090.26953 0.000425
16090.83008 0.000421
16091.38965 0.000417
16091.95020 0.000413
16092.50977 0.00041
16093.07031 0.000406
16093.62988 0.000402
17702.99219 0.0
