# %ECSV 0.9
# ---
# datatype:
# - {name: wavelength, unit: Angstrom, datatype: float32}
# - {name: response, datatype: float32}
# meta: !!omap
# - {band_name: F196N}
# - {group_name: NICMOS3}
wavelength response
19395.89062 0.0
19396.08984 2.6e-05
19396.28906 7.7e-05
19396.48047 0.000128
19396.68945 0.000179
19396.88086 0.00023
19397.08008 0.000281
19397.27930 0.000332
19397.48047 0.000383
19397.67969 0.000434
19397.88086 0.000485
19398.08008 0.000497
19398.27930 0.000451
19398.48047 0.000405
19398.67969 0.000358
19398.88086 0.000312
19399.08008 0.000266
19399.27930 0.00022
19399.48047 0.000174
19399.67969 0.000128
19399.88086 8.2e-05
19400.07031 7.8e-05
19400.26953 0.000144
19400.47070 0.00021
19400.66992 0.000276
19400.86914 0.000342
19401.07031 0.000409
19401.26953 0.000475
19401.47070 0.000541
19401.66992 0.000607
19401.86914 0.000674
19402.07031 0.000726
19402.26953 0.000752
19402.47070 0.000778
19402.66992 0.000805
19402.86914 0.000831
19403.06055 0.000857
19403.25977 0.000883
19403.46094 0.000909
19403.66016 0.000935
19403.85938 0.000961
19404.06055 0.000995
19404.25977 0.001049
19404.46094 0.001102
19404.66016 0.001155
19404.85938 0.001208
19405.06055 0.001261
19405.25977 0.001314
19405.46094 0.001367
19405.66016 0.00142
19405.85938 0.001474
19406.06055 0.001495
19406.25977 0.001438
19406.46094 0.00138
19406.65039 0.001322
19406.84961 0.001265
19407.05078 0.001207
19407.25000 0.001149
19407.44922 0.001091
19407.65039 0.001033
19407.84961 0.000976
19408.05078 0.000937
19408.25000 0.000953
19408.44922 0.000968
19408.65039 0.000984
19408.84961 0.001
19409.05078 0.001016
19409.25000 0.001032
19409.44922 0.001048
19409.65039 0.001064
19409.84961 0.00108
19410.03906 0.001096
19410.24023 0.001116
19410.43945 0.001136
19410.64062 0.001156
19410.83984 0.001175
19411.03906 0.001195
19411.24023 0.001215
19411.43945 0.001235
19411.64062 0.001254
19411.83984 0.001274
19412.03906 0.001284
19412.24023 0.001258
19412.43945 0.001232
19412.64062 0.001206
19412.83984 0.00118
19413.03906 0.001153
19413.24023 0.001127
19413.43945 0.001101
19413.64062 0.001074
19413.83984 0.001048
19414.03906 0.001015
19414.23047 0.000951
19414.42969 0.000887
19414.63086 0.000822
19414.83008 0.000757
19415.02930 0.000693
19415.23047 0.000629
19415.42969 0.000564
19415.63086 0.0005
19415.83008 0.000435
19416.02930 0.000391
19416.23047 0.000454
19416.42969 0.000517
19416.63086 0.000581
19416.83008 0.000644
19417.02930 0.000708
19417.23047 0.000771
19417.42969 0.000835
19417.63086 0.000898
19417.83008 0.000961
19418.02930 0.001016
19418.23047 0.001016
19418.42969 0.001016
19418.61914 0.001015
19418.82031 0.001015
19419.01953 0.001014
19419.22070 0.001014
19419.41992 0.001014
19419.61914 0.001013
19419.82031 0.001013
19420.01953 0.001015
19420.22070 0.001034
19420.41992 0.001055
19420.61914 0.001074
19420.82031 0.001094
19421.01953 0.001114
19421.22070 0.001134
19421.41992 0.001154
19421.61914 0.001174
19421.82031 0.001194
19422.01953 0.001216
19422.22070 0.001268
19422.41992 0.001321
19422.61914 0.001373
19422.82031 0.001425
19423.01953 0.001477
19423.21094 0.001529
19423.41992 0.001581
19423.61914 0.001633
19423.81055 0.001685
19424.00977 0.001732
19424.21094 0.001706
19424.41016 0.00168
19424.60938 0.001654
19424.81055 0.001627
19425.00977 0.001601
19425.21094 0.001575
19425.41016 0.001549
19425.60938 0.001523
19425.81055 0.001497
19426.00977 0.001471
19426.21094 0.001457
19426.41016 0.001442
19426.60938 0.001428
19426.81055 0.001413
19427.00977 0.001399
19427.21094 0.001384
19427.41016 0.00137
19427.60938 0.001356
19427.81055 0.001341
19428.00977 0.001327
19428.21094 0.001312
19428.41016 0.001298
19428.60938 0.001283
19428.81055 0.001268
19429.00977 0.001254
19429.21094 0.001239
19429.40039 0.001225
19429.59961 0.00121
19429.80078 0.001196
19430.00000 0.001182
19430.19922 0.001192
19430.40039 0.001203
19430.59961 0.001214
19430.80078 0.001224
19431.00000 0.001235
19431.19922 0.001246
19431.40039 0.001256
19431.59961 0.001267
19431.80078 0.001278
19432.00000 0.001288
19432.19922 0.001419
19432.40039 0.001549
19432.59961 0.001679
19432.80078 0.001808
19433.00000 0.001939
19433.19922 0.002069
19433.40039 0.002199
19433.59961 0.002328
19433.80078 0.002459
19434.00000 0.002589
19434.19922 0.002571
19434.40039 0.002551
19434.59961 0.002531
19434.80078 0.002511
19435.00000 0.002491
19435.19922 0.002471
19435.40039 0.002452
19435.59961 0.002432
19435.78906 0.002412
19436.00000 0.002392
19436.19922 0.002384
19436.39062 0.002376
19436.58984 0.002369
19436.78906 0.002361
19436.99023 0.002353
19437.18945 0.002346
19437.39062 0.002338
19437.58984 0.00233
19437.78906 0.002323
19437.99023 0.002315
19438.18945 0.002316
19438.39062 0.002318
19438.58984 0.00232
19438.78906 0.002322
19438.99023 0.002323
19439.18945 0.002325
19439.39062 0.002327
19439.58984 0.002329
19439.78906 0.002331
19439.99023 0.002332
19440.18945 0.002335
19440.39062 0.002338
19440.58984 0.00234
19440.78906 0.002343
19440.99023 0.002345
19441.18945 0.002348
19441.39062 0.002351
19441.58984 0.002353
19441.78906 0.002356
19441.99023 0.002358
19442.18945 0.002349
19442.39062 0.002338
19442.58984 0.002328
19442.78906 0.002317
19442.99023 0.002307
19443.18945 0.002296
19443.39062 0.002286
19443.58984 0.002275
19443.78906 0.002265
19443.99023 0.002254
19444.18945 0.002228
19444.39062 0.002202
19444.58984 0.002175
19444.78906 0.002148
19444.99023 0.002121
19445.18945 0.002095
19445.39062 0.002068
19445.58984 0.002041
19445.78906 0.002014
19445.98047 0.001987
19446.18945 0.002035
19446.38086 0.002088
19446.58008 0.002142
19446.78906 0.002195
19446.98047 0.002249
19447.17969 0.002302
19447.38086 0.002356
19447.58008 0.002409
19447.77930 0.002463
19447.98047 0.002517
19448.17969 0.00259
19448.38086 0.002665
19448.58008 0.002742
19448.77930 0.002817
19448.98047 0.002892
19449.17969 0.002968
19449.38086 0.003044
19449.58008 0.003119
19449.77930 0.003195
19449.98047 0.003271
19450.17969 0.003257
19450.38086 0.003235
19450.58008 0.003213
19450.77930 0.003191
19450.98047 0.003169
19451.17969 0.003147
19451.38086 0.003125
19451.58008 0.003103
19451.77930 0.003082
19451.98047 0.003059
19452.17969 0.003051
19452.38086 0.003043
19452.58008 0.003035
19452.77930 0.003028
19452.98047 0.00302
19453.17969 0.003013
19453.38086 0.003005
19453.58008 0.002997
19453.77930 0.00299
19453.98047 0.002982
19454.17969 0.003075
19454.38086 0.003178
19454.58008 0.00328
19454.77930 0.003384
19454.98047 0.003486
19455.17969 0.003589
19455.38086 0.003692
19455.58008 0.003795
19455.77930 0.003898
19455.98047 0.004001
19456.17969 0.003907
19456.38086 0.003791
19456.58008 0.003676
19456.77930 0.003559
19456.98047 0.003444
19457.17969 0.003329
19457.38086 0.003213
19457.58008 0.003097
19457.77930 0.002982
19457.98047 0.002866
19458.17969 0.003103
19458.38086 0.003381
19458.58008 0.003656
19458.77930 0.003931
19458.98047 0.004209
19459.17969 0.004484
19459.38086 0.004762
19459.58008 0.005037
19459.77930 0.005312
19459.98047 0.00559
19460.17969 0.00558
19460.38086 0.005539
19460.58008 0.005498
19460.77930 0.005457
19460.98047 0.005416
19461.17969 0.005375
19461.38086 0.005333
19461.58008 0.005292
19461.77930 0.005251
19461.98047 0.00521
19462.17969 0.005139
19462.38086 0.005064
19462.58008 0.00499
19462.77930 0.004916
19462.98047 0.004842
19463.17969 0.004768
19463.38086 0.004693
19463.58008 0.004619
19463.77930 0.004545
19463.98047 0.00447
19464.17969 0.004555
19464.38086 0.004658
19464.58008 0.00476
19464.77930 0.004863
19464.98047 0.004965
19465.17969 0.005067
19465.38086 0.00517
19465.58008 0.005272
19465.77930 0.005375
19465.98047 0.005477
19466.17969 0.005521
19466.38086 0.005559
19466.58008 0.005596
19466.77930 0.005634
19466.98047 0.005671
19467.17969 0.005709
19467.38086 0.005746
19467.58008 0.005784
19467.77930 0.005821
19467.98047 0.005859
19468.17969 0.005923
19468.38086 0.00599
19468.58008 0.006058
19468.77930 0.006125
19468.98047 0.006193
19469.17969 0.00626
19469.38086 0.006327
19469.58008 0.006394
19469.77930 0.006461
19469.98047 0.006529
19470.17969 0.00654
19470.38086 0.006546
19470.58008 0.006552
19470.77930 0.006558
19470.98047 0.006564
19471.17969 0.006571
19471.38086 0.006577
19471.58008 0.006583
19471.77930 0.006589
19471.98047 0.006595
19472.17969 0.006502
19472.38086 0.006401
19472.58008 0.006299
19472.77930 0.006198
19472.98047 0.006096
19473.17969 0.005995
19473.38086 0.005893
19473.58008 0.005793
19473.78906 0.005691
19473.98047 0.00559
19474.18945 0.005826
19474.38086 0.006089
19474.58984 0.006355
19474.78906 0.006617
19474.99023 0.006883
19475.18945 0.007146
19475.38086 0.007409
19475.58984 0.007674
19475.78906 0.007937
19475.99023 0.008202
19476.18945 0.008245
19476.39062 0.008271
19476.58984 0.008297
19476.78906 0.008324
19476.99023 0.00835
19477.18945 0.008376
19477.39062 0.008402
19477.58984 0.008429
19477.78906 0.008455
19477.99023 0.008481
19478.18945 0.00859
19478.39062 0.008704
19478.58984 0.008817
19478.78906 0.008932
19478.99023 0.009045
19479.18945 0.009159
19479.39062 0.009273
19479.58984 0.009387
19479.78906 0.0095
19479.99023 0.009615
19480.18945 0.009603
19480.39062 0.009584
19480.58984 0.009566
19480.78906 0.009547
19480.99023 0.009529
19481.18945 0.009511
19481.39062 0.009492
19481.58984 0.009474
19481.78906 0.009455
19481.99023 0.009437
19482.18945 0.009555
19482.39062 0.00968
19482.58984 0.009804
19482.78906 0.009929
19482.99023 0.010052
19483.18945 0.010178
19483.39062 0.010301
19483.58984 0.010426
19483.78906 0.01055
19483.99023 0.010675
19484.19922 0.010783
19484.39062 0.010888
19484.59961 0.010995
19484.78906 0.011101
19485.00000 0.011208
19485.19922 0.011314
19485.40039 0.011421
19485.59961 0.011527
19485.80078 0.011634
19486.00000 0.01174
19486.19922 0.011785
19486.40039 0.011828
19486.59961 0.011872
19486.80078 0.011916
19487.00000 0.01196
19487.19922 0.012003
19487.40039 0.012047
19487.59961 0.012091
19487.80078 0.012134
19488.00000 0.012178
19488.19922 0.012287
19488.40039 0.012396
19488.59961 0.012504
19488.80078 0.012614
19489.00000 0.012722
19489.19922 0.012831
19489.40039 0.012941
19489.59961 0.013049
19489.80078 0.013158
19490.00000 0.013267
19490.19922 0.013425
19490.40039 0.013582
19490.59961 0.01374
19490.80078 0.013896
19491.00000 0.014054
19491.21094 0.014212
19491.40039 0.014369
19491.60938 0.014527
19491.80078 0.014683
19492.00977 0.01484
19492.21094 0.014946
19492.41016 0.015053
19492.60938 0.01516
19492.81055 0.015265
19493.00977 0.015372
19493.21094 0.015478
19493.41016 0.015585
19493.60938 0.015691
19493.81055 0.015798
19494.00977 0.015908
19494.21094 0.016077
19494.41016 0.016248
19494.60938 0.016417
19494.81055 0.016588
19495.00977 0.016757
19495.21094 0.016928
19495.41016 0.017099
19495.60938 0.017268
19495.81055 0.017439
19496.00977 0.017605
19496.21094 0.017725
19496.41016 0.017845
19496.60938 0.017963
19496.81055 0.018083
19497.00977 0.018202
19497.21094 0.018322
19497.41016 0.01844
19497.61914 0.01856
19497.82031 0.01868
19498.01953 0.018801
19498.22070 0.018956
19498.41992 0.019109
19498.61914 0.019264
19498.82031 0.019419
19499.01953 0.019572
19499.22070 0.019727
19499.41992 0.01988
19499.61914 0.020035
19499.82031 0.02019
19500.01953 0.020351
19500.22070 0.020581
19500.41992 0.020812
19500.61914 0.02104
19500.82031 0.021271
19501.01953 0.0215
19501.22070 0.02173
19501.41992 0.021961
19501.61914 0.022189
19501.82031 0.02242
19502.01953 0.022646
19502.22070 0.022852
19502.42969 0.023058
19502.63086 0.023263
19502.83008 0.023469
19503.02930 0.023675
19503.23047 0.02388
19503.42969 0.024086
19503.63086 0.024291
19503.83008 0.024497
19504.02930 0.024712
19504.23047 0.024972
19504.42969 0.025236
19504.63086 0.025499
19504.83008 0.02576
19505.02930 0.026023
19505.23047 0.026284
19505.42969 0.026548
19505.63086 0.026811
19505.83008 0.027072
19506.02930 0.027332
19506.23047 0.027577
19506.42969 0.027819
19506.63086 0.028063
19506.83984 0.028307
19507.03906 0.028549
19507.24023 0.028794
19507.43945 0.029038
19507.64062 0.02928
19507.83984 0.029525
19508.03906 0.029767
19508.24023 0.03001
19508.43945 0.030253
19508.64062 0.030494
19508.83984 0.030737
19509.03906 0.03098
19509.24023 0.031221
19509.43945 0.031464
19509.64062 0.031707
19509.83984 0.031948
19510.03906 0.032203
19510.24023 0.032503
19510.43945 0.0328
19510.64062 0.0331
19510.84961 0.0334
19511.03906 0.033697
19511.25000 0.033997
19511.44922 0.034297
19511.65039 0.034594
19511.84961 0.034894
19512.05078 0.035179
19512.25000 0.035414
19512.44922 0.035652
19512.65039 0.035889
19512.84961 0.036125
19513.05078 0.036362
19513.25000 0.0366
19513.44922 0.036835
19513.65039 0.037072
19513.84961 0.03731
19514.05078 0.037592
19514.25000 0.038008
19514.46094 0.038425
19514.66016 0.038841
19514.85938 0.039253
19515.06055 0.039669
19515.25977 0.040086
19515.46094 0.040498
19515.66016 0.040914
19515.85938 0.04133
19516.06055 0.041713
19516.25977 0.042028
19516.46094 0.042342
19516.66016 0.042654
19516.85938 0.042968
19517.06055 0.043283
19517.25977 0.043598
19517.46094 0.043909
19517.66016 0.044224
19517.86914 0.044539
19518.06055 0.044914
19518.26953 0.045428
19518.47070 0.045942
19518.66992 0.046452
19518.86914 0.046966
19519.07031 0.04748
19519.26953 0.047994
19519.47070 0.048503
19519.66992 0.049017
19519.86914 0.049531
19520.07031 0.050006
19520.26953 0.05042
19520.47070 0.050834
19520.66992 0.051248
19520.86914 0.051658
19521.07031 0.052072
19521.27930 0.052486
19521.47070 0.052897
19521.67969 0.053311
19521.88086 0.053725
19522.08008 0.054191
19522.27930 0.054733
19522.48047 0.055281
19522.67969 0.055829
19522.88086 0.056371
19523.08008 0.056919
19523.27930 0.057466
19523.48047 0.058014
19523.67969 0.058556
19523.88086 0.059104
19524.08008 0.059618
19524.28906 0.060083
19524.48047 0.060544
19524.68945 0.06101
19524.89062 0.061476
19525.08984 0.061941
19525.28906 0.062403
19525.49023 0.062868
19525.68945 0.063334
19525.89062 0.0638
19526.08984 0.064286
19526.28906 0.064808
19526.49023 0.06533
19526.68945 0.065852
19526.89062 0.066368
19527.08984 0.06689
19527.28906 0.067412
19527.50000 0.067934
19527.69922 0.068451
19527.90039 0.068973
19528.09961 0.069509
19528.30078 0.070059
19528.50000 0.070604
19528.69922 0.071155
19528.90039 0.071705
19529.09961 0.072255
19529.30078 0.072801
19529.50000 0.073351
19529.69922 0.073902
19529.90039 0.074452
19530.09961 0.075009
19530.30078 0.075581
19530.50977 0.076153
19530.71094 0.076725
19530.91016 0.077292
19531.10938 0.077864
19531.31055 0.078436
19531.50977 0.079008
19531.71094 0.079581
19531.91016 0.080148
19532.10938 0.080749
19532.31055 0.081374
19532.50977 0.081998
19532.71094 0.082617
19532.91016 0.083242
19533.11914 0.083866
19533.32031 0.084491
19533.51953 0.085116
19533.72070 0.085735
19533.91992 0.08636
19534.11914 0.087001
19534.32031 0.087654
19534.51953 0.088306
19534.72070 0.088953
19534.91992 0.089606
19535.11914 0.090258
19535.32031 0.090911
19535.51953 0.091558
19535.72070 0.09221
19535.92969 0.092863
19536.13086 0.09355
19536.33008 0.094257
19536.52930 0.094957
19536.73047 0.095663
19536.92969 0.09637
19537.13086 0.097077
19537.33008 0.097784
19537.52930 0.098484
19537.73047 0.099191
19537.92969 0.099897
19538.13086 0.100703
19538.33984 0.101558
19538.53906 0.102412
19538.74023 0.103258
19538.93945 0.104113
19539.14062 0.104968
19539.33984 0.105822
19539.53906 0.106677
19539.74023 0.107523
19539.93945 0.108378
19540.14062 0.10923
19540.33984 0.110082
19540.53906 0.110933
19540.75000 0.111784
19540.94922 0.112628
19541.15039 0.113479
19541.34961 0.114331
19541.55078 0.115182
19541.75000 0.116034
19541.94922 0.116877
19542.15039 0.117713
19542.34961 0.118543
19542.55078 0.119374
19542.75000 0.120204
19542.96094 0.121035
19543.15039 0.121857
19543.35938 0.122688
19543.56055 0.123519
19543.75977 0.124349
19543.96094 0.12518
19544.16016 0.126003
19544.35938 0.126816
19544.56055 0.127637
19544.75977 0.128459
19544.96094 0.12928
19545.16016 0.130101
19545.36914 0.130923
19545.57031 0.131744
19545.76953 0.132557
19545.97070 0.133379
19546.16992 0.134146
19546.36914 0.134902
19546.57031 0.135659
19546.76953 0.136415
19546.97070 0.137172
19547.16992 0.137921
19547.36914 0.138678
19547.57031 0.139434
19547.77930 0.140191
19547.98047 0.140948
19548.17969 0.141805
19548.38086 0.142676
19548.58008 0.143538
19548.77930 0.144409
19548.98047 0.14528
19549.17969 0.146151
19549.38086 0.147022
19549.58008 0.147893
19549.78906 0.148764
19549.98047 0.149627
19550.18945 0.15038
19550.39062 0.151123
19550.58984 0.151866
19550.78906 0.15261
19550.99023 0.153353
19551.18945 0.154096
19551.39062 0.15484
19551.58984 0.155576
19551.78906 0.15632
19551.99023 0.157063
19552.19922 0.157856
19552.40039 0.15865
19552.59961 0.159445
19552.80078 0.160239
19553.00000 0.161033
19553.19922 0.161828
19553.40039 0.162615
19553.59961 0.163409
19553.80078 0.164204
19554.00000 0.164997
19554.21094 0.165735
19554.41016 0.166473
19554.60938 0.167211
19554.81055 0.167949
19555.00977 0.168686
19555.21094 0.169417
19555.41016 0.170155
19555.60938 0.170893
19555.81055 0.171631
19556.00977 0.172369
19556.21094 0.173109
19556.41992 0.173848
19556.61914 0.174588
19556.82031 0.175327
19557.01953 0.176067
19557.22070 0.176806
19557.41992 0.177539
19557.61914 0.178278
19557.82031 0.179018
19558.01953 0.179749
19558.22070 0.180418
19558.42969 0.181087
19558.63086 0.181756
19558.83008 0.182425
19559.02930 0.183094
19559.23047 0.183763
19559.42969 0.184432
19559.63086 0.185101
19559.83008 0.185764
19560.02930 0.186447
19560.23047 0.187205
19560.43945 0.187964
19560.64062 0.188722
19560.83984 0.18948
19561.03906 0.190238
19561.24023 0.190996
19561.43945 0.191755
19561.64062 0.192513
19561.83984 0.193271
19562.03906 0.193984
19562.25000 0.194539
19562.44922 0.195094
19562.65039 0.195644
19562.84961 0.196199
19563.05078 0.196755
19563.25000 0.19731
19563.44922 0.197865
19563.65039 0.19842
19563.84961 0.198976
19564.05078 0.199562
19564.25977 0.200232
19564.46094 0.200902
19564.66016 0.201572
19564.85938 0.202242
19565.06055 0.202912
19565.25977 0.203582
19565.46094 0.204252
19565.66016 0.204923
19565.86914 0.205593
19566.07031 0.206216
19566.26953 0.206744
19566.47070 0.207267
19566.66992 0.207796
19566.86914 0.208324
19567.07031 0.208852
19567.26953 0.209381
19567.47070 0.209909
19567.66992 0.210437
19567.86914 0.210966
19568.08008 0.211467
19568.27930 0.211924
19568.48047 0.21238
19568.67969 0.212837
19568.88086 0.213293
19569.08008 0.21375
19569.27930 0.214207
19569.48047 0.214663
19569.68945 0.21512
19569.89062 0.215577
19570.08984 0.216049
19570.28906 0.216541
19570.49023 0.217033
19570.68945 0.217526
19570.89062 0.218018
19571.08984 0.21851
19571.28906 0.219002
19571.50000 0.219494
19571.69922 0.219987
19571.90039 0.220479
19572.09961 0.220924
19572.30078 0.22132
19572.50000 0.221717
19572.69922 0.222113
19572.90039 0.222509
19573.10938 0.222906
19573.31055 0.223302
19573.50977 0.223699
19573.71094 0.224095
19573.91016 0.224492
19574.10938 0.224851
19574.31055 0.225179
19574.50977 0.225507
19574.71094 0.225835
19574.91992 0.226163
19575.11914 0.226492
19575.32031 0.22682
19575.51953 0.227148
19575.72070 0.227477
19575.91992 0.227805
19576.11914 0.228141
19576.32031 0.228482
19576.52930 0.228822
19576.73047 0.229163
19576.92969 0.229504
19577.13086 0.229845
19577.33008 0.230185
19577.52930 0.230526
19577.73047 0.230867
19577.92969 0.231208
19578.13086 0.231496
19578.33984 0.231758
19578.53906 0.23202
19578.74023 0.232282
19578.93945 0.232545
19579.14062 0.232807
19579.33984 0.233069
19579.53906 0.233331
19579.74023 0.233594
19579.94922 0.233856
19580.15039 0.234184
19580.34961 0.234537
19580.55078 0.234889
19580.75000 0.235242
19580.94922 0.235595
19581.15039 0.235948
19581.34961 0.236301
19581.55078 0.236653
19581.75977 0.237006
19581.96094 0.237359
19582.16016 0.237608
19582.35938 0.237828
19582.56055 0.238048
19582.75977 0.238271
19582.96094 0.238491
19583.16992 0.238711
19583.36914 0.238932
19583.57031 0.239152
19583.76953 0.239372
19583.97070 0.239593
19584.16992 0.239804
19584.36914 0.240013
19584.57031 0.240223
19584.77930 0.240432
19584.98047 0.240642
19585.17969 0.240851
19585.38086 0.241061
19585.58008 0.24127
19585.77930 0.24148
19585.98047 0.24169
19586.17969 0.241885
19586.38086 0.242079
19586.58984 0.242275
19586.78906 0.242469
19586.99023 0.242663
19587.18945 0.242857
19587.39062 0.243051
19587.58984 0.243246
19587.78906 0.24344
19588.00000 0.243634
19588.19922 0.243755
19588.40039 0.243875
19588.59961 0.243995
19588.80078 0.244115
19589.00000 0.244235
19589.19922 0.244355
19589.41016 0.244476
19589.60938 0.244595
19589.81055 0.244715
19590.00977 0.244838
19590.21094 0.245011
19590.41016 0.245185
19590.60938 0.245359
19590.81055 0.245532
19591.01953 0.245706
19591.22070 0.24588
19591.41992 0.246054
19591.61914 0.246227
19591.82031 0.246402
19592.01953 0.246566
19592.22070 0.246656
19592.42969 0.246746
19592.63086 0.246836
19592.83008 0.246926
19593.02930 0.247016
19593.23047 0.247106
19593.42969 0.247196
19593.63086 0.247286
19593.83984 0.247377
19594.03906 0.247463
19594.24023 0.247535
19594.43945 0.247607
19594.64062 0.247678
19594.83984 0.24775
19595.03906 0.247822
19595.24023 0.247893
19595.44922 0.247965
19595.65039 0.248037
19595.84961 0.248109
19596.05078 0.248209
19596.25000 0.248392
19596.44922 0.248576
19596.65039 0.248759
19596.85938 0.248943
19597.06055 0.249126
19597.25977 0.249309
19597.46094 0.249495
19597.66016 0.249678
19597.85938 0.249861
19598.06055 0.249976
19598.26953 0.249944
19598.47070 0.249913
19598.66992 0.249881
19598.86914 0.24985
19599.07031 0.249818
19599.26953 0.249786
19599.47070 0.249754
19599.67969 0.249723
19599.88086 0.249691
19600.08008 0.249694
19600.27930 0.249751
19600.48047 0.249808
19600.67969 0.249866
19600.88086 0.249923
19601.08984 0.24998
19601.28906 0.250037
19601.49023 0.250094
19601.68945 0.250151
19601.89062 0.250208
19602.08984 0.250261
19602.28906 0.250308
19602.50000 0.250355
19602.69922 0.250401
19602.90039 0.250449
19603.09961 0.250495
19603.30078 0.250543
19603.50000 0.25059
19603.71094 0.250637
19603.91016 0.250684
19604.10938 0.25076
19604.31055 0.250862
19604.50977 0.250964
19604.71094 0.251068
19604.91016 0.25117
19605.11914 0.251272
19605.32031 0.251374
19605.51953 0.251476
19605.72070 0.251578
19605.91992 0.251681
19606.11914 0.251725
19606.32031 0.251733
19606.52930 0.251741
19606.73047 0.251749
19606.92969 0.251756
19607.13086 0.251764
19607.33008 0.251772
19607.52930 0.251779
19607.73047 0.251787
19607.93945 0.251795
19608.14062 0.251746
19608.33984 0.25167
19608.53906 0.251594
19608.74023 0.251519
19608.93945 0.251444
19609.14062 0.251368
19609.34961 0.251292
19609.55078 0.251217
19609.75000 0.251142
19609.94922 0.251066
19610.15039 0.251136
19610.34961 0.251251
19610.56055 0.251368
19610.75977 0.251484
19610.96094 0.251599
19611.16016 0.251715
19611.35938 0.251831
19611.56055 0.251948
19611.76953 0.252063
19611.97070 0.252179
19612.16992 0.252107
19612.36914 0.251998
19612.57031 0.251888
19612.76953 0.251779
19612.97070 0.251671
19613.17969 0.251562
19613.38086 0.251453
19613.58008 0.251343
19613.77930 0.251234
19613.98047 0.251125
19614.17969 0.251118
19614.38086 0.251121
19614.58984 0.251123
19614.78906 0.251126
19614.99023 0.251129
19615.18945 0.251132
19615.39062 0.251134
19615.59961 0.251137
19615.80078 0.25114
19616.00000 0.251143
19616.19922 0.251137
19616.40039 0.251132
19616.59961 0.251126
19616.80078 0.251121
19617.00977 0.251115
19617.21094 0.25111
19617.41016 0.251104
19617.60938 0.251099
19617.81055 0.251094
19618.00977 0.251086
19618.22070 0.251055
19618.41992 0.251024
19618.61914 0.250992
19618.82031 0.250961
19619.01953 0.25093
19619.22070 0.250899
19619.42969 0.250868
19619.63086 0.250836
19619.83008 0.250805
19620.02930 0.250777
19620.23047 0.250771
19620.42969 0.250765
19620.63086 0.250759
19620.83984 0.250752
19621.03906 0.250746
19621.24023 0.25074
19621.43945 0.250734
19621.64062 0.250727
19621.84961 0.250721
19622.05078 0.250702
19622.25000 0.250639
19622.44922 0.250575
19622.65039 0.250512
19622.84961 0.250449
19623.05078 0.250386
19623.25977 0.250323
19623.46094 0.25026
19623.66016 0.250197
19623.85938 0.250134
19624.06055 0.250079
19624.26953 0.250042
19624.47070 0.250005
19624.66992 0.249968
19624.86914 0.249932
19625.07031 0.249895
19625.26953 0.249858
19625.48047 0.249821
19625.67969 0.249784
19625.88086 0.249748
19626.08008 0.249692
19626.27930 0.249608
19626.48047 0.249524
19626.68945 0.24944
19626.89062 0.249356
19627.08984 0.249271
19627.28906 0.249188
19627.49023 0.249104
19627.69922 0.249019
19627.90039 0.248935
19628.09961 0.24891
19628.30078 0.248946
19628.50000 0.248982
19628.69922 0.249019
19628.90039 0.249055
19629.10938 0.249091
19629.31055 0.249128
19629.50977 0.249164
19629.71094 0.2492
19629.91016 0.249236
19630.11914 0.249153
19630.32031 0.24898
19630.51953 0.248805
19630.72070 0.248632
19630.91992 0.248459
19631.11914 0.248285
19631.33008 0.248112
19631.52930 0.247939
19631.73047 0.247765
19631.92969 0.247591
19632.13086 0.24747
19632.33008 0.247377
19632.53906 0.247282
19632.74023 0.247188
19632.93945 0.247094
19633.14062 0.247
19633.33984 0.246906
19633.53906 0.246813
19633.75000 0.246719
19633.94922 0.246624
19634.15039 0.246567
19634.34961 0.246523
19634.55078 0.246478
19634.75977 0.246433
19634.96094 0.246389
19635.16016 0.246344
19635.35938 0.2463
19635.56055 0.246255
19635.76953 0.24621
19635.97070 0.246166
19636.16992 0.24614
19636.36914 0.246117
19636.57031 0.246095
19636.76953 0.246073
19636.98047 0.246051
19637.17969 0.246029
19637.38086 0.246007
19637.58008 0.245984
19637.77930 0.245962
19637.98047 0.24594
19638.18945 0.245979
19638.39062 0.246023
19638.58984 0.246067
19638.78906 0.246111
19638.99023 0.246155
19639.19922 0.246199
19639.40039 0.246243
19639.59961 0.246287
19639.80078 0.246331
19640.00000 0.246371
19640.21094 0.246184
19640.41016 0.245998
19640.60938 0.24581
19640.81055 0.245623
19641.00977 0.245437
19641.21094 0.245248
19641.41992 0.245062
19641.61914 0.244875
19641.82031 0.244687
19642.01953 0.24451
19642.22070 0.244413
19642.42969 0.244316
19642.63086 0.24422
19642.83008 0.244123
19643.02930 0.244026
19643.23047 0.24393
19643.43945 0.243833
19643.64062 0.243736
19643.83984 0.24364
19644.03906 0.243535
19644.24023 0.243403
19644.44922 0.24327
19644.65039 0.243139
19644.84961 0.243007
19645.05078 0.242874
19645.25000 0.242742
19645.44922 0.24261
19645.66016 0.242477
19645.85938 0.242345
19646.06055 0.242267
19646.25977 0.242323
19646.46094 0.242378
19646.66992 0.242434
19646.86914 0.242489
19647.07031 0.242543
19647.26953 0.242599
19647.47070 0.242654
19647.67969 0.24271
19647.88086 0.242765
19648.08008 0.242734
19648.27930 0.242569
19648.48047 0.242404
19648.67969 0.24224
19648.89062 0.242074
19649.08984 0.24191
19649.28906 0.241744
19649.49023 0.24158
19649.68945 0.241416
19649.90039 0.24125
19650.09961 0.241181
19650.30078 0.241214
19650.50000 0.241247
19650.69922 0.24128
19650.91016 0.241313
19651.10938 0.241345
19651.31055 0.241378
19651.50977 0.241411
19651.71094 0.241444
19651.91992 0.241477
19652.11914 0.241399
19652.32031 0.241241
19652.51953 0.241085
19652.72070 0.240929
19652.92969 0.240771
19653.13086 0.240615
19653.33008 0.240457
19653.52930 0.240301
19653.73047 0.240143
19653.93945 0.239987
19654.14062 0.239956
19654.33984 0.239984
19654.53906 0.240013
19654.74023 0.240041
19654.94922 0.24007
19655.15039 0.240098
19655.34961 0.240126
19655.55078 0.240155
19655.75000 0.240183
19655.96094 0.240212
19656.16016 0.240317
19656.35938 0.240444
19656.56055 0.240572
19656.75977 0.240698
19656.96094 0.240825
19657.16992 0.240952
19657.36914 0.241079
19657.57031 0.241207
19657.76953 0.241333
19657.98047 0.241461
19658.17969 0.241367
19658.38086 0.241244
19658.58008 0.24112
19658.77930 0.240997
19658.99023 0.240872
19659.18945 0.240749
19659.39062 0.240625
19659.58984 0.240502
19659.78906 0.240377
19660.00000 0.240254
19660.19922 0.240281
19660.40039 0.240311
19660.59961 0.24034
19660.80078 0.24037
19661.00977 0.240399
19661.21094 0.240429
19661.41016 0.240458
19661.60938 0.240488
19661.81055 0.240517
19662.01953 0.240538
19662.22070 0.240472
19662.41992 0.240405
19662.61914 0.240338
19662.82031 0.240271
19663.02930 0.240204
19663.23047 0.240137
19663.42969 0.24007
19663.63086 0.240003
19663.83984 0.239936
19664.03906 0.239913
19664.24023 0.240089
19664.43945 0.240263
19664.64062 0.240439
19664.84961 0.240613
19665.05078 0.240788
19665.25000 0.240962
19665.44922 0.241138
19665.65039 0.241312
19665.85938 0.241488
19666.06055 0.241611
19666.25977 0.241612
19666.46094 0.241612
19666.66016 0.241612
19666.86914 0.241612
19667.07031 0.241612
19667.26953 0.241612
19667.47070 0.241613
19667.67969 0.241613
19667.88086 0.241613
19668.08008 0.241637
19668.27930 0.241696
19668.48047 0.241756
19668.68945 0.241816
19668.89062 0.241876
19669.08984 0.241935
19669.28906 0.241995
19669.49023 0.242055
19669.69922 0.242115
19669.90039 0.242174
19670.09961 0.242238
19670.30078 0.242305
19670.50977 0.242372
19670.71094 0.242438
19670.91016 0.242506
19671.10938 0.242572
19671.31055 0.242639
19671.51953 0.242706
19671.72070 0.242773
19671.91992 0.24284
19672.11914 0.242912
19672.32031 0.242987
19672.52930 0.243063
19672.73047 0.243139
19672.92969 0.243215
19673.13086 0.24329
19673.33984 0.243366
19673.53906 0.243442
19673.74023 0.243517
19673.93945 0.243593
19674.14062 0.24368
19674.34961 0.243773
19674.55078 0.243864
19674.75000 0.243957
19674.94922 0.244049
19675.16016 0.244142
19675.35938 0.244233
19675.56055 0.244326
19675.75977 0.244418
19675.96094 0.24451
19676.16992 0.244616
19676.36914 0.244726
19676.57031 0.244835
19676.76953 0.244945
19676.98047 0.245055
19677.17969 0.245163
19677.38086 0.245273
19677.58008 0.245382
19677.78906 0.245492
19677.99023 0.245601
19678.18945 0.245714
19678.39062 0.245825
19678.58984 0.245938
19678.78906 0.24605
19679.00000 0.246163
19679.19922 0.246276
19679.40039 0.246387
19679.60938 0.2465
19679.81055 0.246612
19680.00977 0.246727
19680.21094 0.246884
19680.41016 0.247043
19680.61914 0.2472
19680.82031 0.247358
19681.01953 0.247517
19681.22070 0.247674
19681.42969 0.247833
19681.63086 0.24799
19681.83008 0.248148
19682.02930 0.248299
19682.23047 0.24841
19682.43945 0.248522
19682.64062 0.248633
19682.83984 0.248745
19683.03906 0.248856
19683.25000 0.248968
19683.44922 0.249079
19683.65039 0.249191
19683.84961 0.249303
19684.05078 0.249434
19684.25977 0.249622
19684.46094 0.249807
19684.66016 0.249995
19684.85938 0.250181
19685.07031 0.250368
19685.26953 0.250556
19685.47070 0.250742
19685.66992 0.250929
19685.88086 0.251115
19686.08008 0.251269
19686.27930 0.251369
19686.48047 0.25147
19686.68945 0.251571
19686.89062 0.251671
19687.08984 0.251771
19687.28906 0.251871
19687.49023 0.251972
19687.69922 0.252073
19687.90039 0.252173
19688.09961 0.252304
19688.30078 0.252462
19688.50977 0.252622
19688.71094 0.252782
19688.91016 0.252941
19689.10938 0.253101
19689.31055 0.253259
19689.51953 0.25342
19689.72070 0.25358
19689.91992 0.253738
19690.13086 0.253846
19690.33008 0.25392
19690.52930 0.253995
19690.73047 0.254069
19690.92969 0.254143
19691.14062 0.254218
19691.33984 0.254293
19691.53906 0.254367
19691.74023 0.254442
19691.94922 0.254516
19692.15039 0.254594
19692.34961 0.254673
19692.55078 0.254752
19692.75977 0.254831
19692.96094 0.25491
19693.16016 0.254989
19693.35938 0.255068
19693.56055 0.255147
19693.76953 0.255226
19693.97070 0.255306
19694.16992 0.255348
19694.38086 0.255384
19694.58008 0.255421
19694.77930 0.255457
19694.98047 0.255493
19695.17969 0.255529
19695.39062 0.255566
19695.58984 0.255602
19695.78906 0.255638
19695.99023 0.255675
19696.19922 0.255695
19696.40039 0.255714
19696.59961 0.255733
19696.80078 0.255753
19697.00977 0.255772
19697.21094 0.255791
19697.41016 0.25581
19697.60938 0.25583
19697.82031 0.255849
19698.01953 0.255856
19698.22070 0.255734
19698.41992 0.255612
19698.63086 0.255491
19698.83008 0.255369
19699.02930 0.255247
19699.23047 0.255127
19699.43945 0.255005
19699.64062 0.254883
19699.83984 0.254762
19700.03906 0.254675
19700.25000 0.254717
19700.44922 0.254758
19700.65039 0.2548
19700.84961 0.254842
19701.05078 0.254884
19701.25977 0.254926
19701.46094 0.254968
19701.66016 0.255009
19701.86914 0.255051
19702.07031 0.255014
19702.26953 0.254823
19702.47070 0.254629
19702.67969 0.254436
19702.88086 0.254244
19703.08008 0.254051
19703.27930 0.253858
19703.48047 0.253666
19703.68945 0.253472
19703.89062 0.253279
19704.08984 0.253078
19704.28906 0.252862
19704.50000 0.252647
19704.69922 0.252433
19704.90039 0.252218
19705.10938 0.252002
19705.31055 0.251786
19705.50977 0.251573
19705.71094 0.251357
19705.91992 0.251142
19706.11914 0.25081
19706.32031 0.250389
19706.51953 0.249968
19706.72070 0.249551
19706.92969 0.24913
19707.13086 0.248709
19707.33008 0.248292
19707.53906 0.247871
19707.74023 0.24745
19707.93945 0.247029
19708.14062 0.246708
19708.34961 0.246424
19708.55078 0.24614
19708.75000 0.245859
19708.94922 0.245575
19709.16016 0.245291
19709.35938 0.24501
19709.56055 0.244726
19709.75977 0.244442
19709.97070 0.244159
19710.16992 0.243547
19710.36914 0.242864
19710.57031 0.24218
19710.77930 0.241504
19710.98047 0.24082
19711.17969 0.240137
19711.38086 0.239453
19711.58984 0.238777
19711.78906 0.238093
19711.99023 0.23741
19712.19922 0.236866
19712.40039 0.236333
19712.59961 0.235795
19712.80078 0.235257
19713.00000 0.234724
19713.21094 0.234186
19713.41016 0.233648
19713.60938 0.23311
19713.81055 0.232577
19714.01953 0.232018
19714.22070 0.23124
19714.41992 0.230462
19714.63086 0.229692
19714.83008 0.228914
19715.02930 0.228137
19715.23047 0.227359
19715.43945 0.226589
19715.64062 0.225811
19715.83984 0.225033
19716.03906 0.224255
19716.25000 0.223439
19716.44922 0.222624
19716.65039 0.221809
19716.84961 0.221001
19717.06055 0.220186
19717.25977 0.21937
19717.46094 0.218555
19717.66016 0.217747
19717.86914 0.216931
19718.07031 0.216096
19718.26953 0.215224
19718.48047 0.214351
19718.67969 0.213487
19718.88086 0.212614
19719.08008 0.211741
19719.28906 0.210868
19719.49023 0.210004
19719.68945 0.209131
19719.89062 0.208258
19720.09961 0.207304
19720.30078 0.20627
19720.50000 0.205227
19720.71094 0.204183
19720.91016 0.203139
19721.10938 0.202106
19721.31055 0.201062
19721.51953 0.200019
19721.72070 0.198975
19721.91992 0.197931
19722.11914 0.196918
19722.33008 0.195907
19722.52930 0.194897
19722.73047 0.193886
19722.92969 0.192885
19723.14062 0.191875
19723.33984 0.190864
19723.53906 0.189853
19723.75000 0.188843
19723.94922 0.187842
19724.15039 0.186808
19724.34961 0.185768
19724.56055 0.184727
19724.75977 0.183686
19724.96094 0.182655
19725.16016 0.181614
19725.36914 0.180572
19725.57031 0.179531
19725.76953 0.1785
19725.97070 0.177459
19726.17969 0.176271
19726.38086 0.175063
19726.58008 0.173854
19726.78906 0.172657
19726.99023 0.171448
19727.18945 0.17024
19727.39062 0.169031
19727.59961 0.167822
19727.80078 0.166625
19728.00000 0.165416
19728.21094 0.164275
19728.41016 0.163134
19728.60938 0.161993
19728.81055 0.160852
19729.01953 0.159722
19729.22070 0.158581
19729.41992 0.15744
19729.63086 0.156298
19729.83008 0.155157
19730.02930 0.154051
19730.23047 0.153074
19730.43945 0.152098
19730.64062 0.151122
19730.83984 0.150145
19731.03906 0.149169
19731.25000 0.148202
19731.44922 0.147226
19731.65039 0.14625
19731.85938 0.145273
19732.06055 0.144206
19732.25977 0.142929
19732.46094 0.14164
19732.66992 0.14035
19732.86914 0.13906
19733.07031 0.137771
19733.27930 0.136481
19733.48047 0.135204
19733.67969 0.133914
19733.88086 0.132624
19734.08984 0.131477
19734.28906 0.130524
19734.49023 0.129572
19734.69922 0.128619
19734.90039 0.127675
19735.09961 0.126723
19735.30078 0.12577
19735.50977 0.124817
19735.71094 0.123865
19735.91016 0.122912
19736.10938 0.121877
19736.32031 0.12076
19736.51953 0.119642
19736.72070 0.118526
19736.92969 0.117408
19737.13086 0.116291
19737.33008 0.115174
19737.52930 0.114068
19737.74023 0.11295
19737.93945 0.111833
19738.14062 0.110886
19738.34961 0.110012
19738.55078 0.109137
19738.75000 0.108262
19738.94922 0.107396
19739.16016 0.106521
19739.35938 0.105646
19739.56055 0.104772
19739.76953 0.103897
19739.97070 0.103022
19740.16992 0.102072
19740.38086 0.101109
19740.58008 0.100154
19740.77930 0.099191
19740.98047 0.098227
19741.18945 0.097263
19741.39062 0.0963
19741.58984 0.095336
19741.78906 0.094372
19742.00000 0.093408
19742.19922 0.092692
19742.40039 0.091971
19742.60938 0.091249
19742.81055 0.090528
19743.00977 0.089807
19743.21094 0.089085
19743.41992 0.088364
19743.61914 0.087643
19743.82031 0.086922
19744.02930 0.086199
19744.23047 0.08541
19744.42969 0.084622
19744.63086 0.083833
19744.83984 0.083045
19745.03906 0.082256
19745.24023 0.081467
19745.44922 0.080679
19745.65039 0.07989
19745.84961 0.079102
19746.05078 0.07835
19746.25977 0.07767
19746.46094 0.076991
19746.66016 0.076311
19746.86914 0.075632
19747.07031 0.074952
19747.26953 0.074273
19747.48047 0.073593
19747.67969 0.072914
19747.88086 0.072234
19748.08984 0.071551
19748.28906 0.070869
19748.49023 0.07018
19748.68945 0.069492
19748.90039 0.068804
19749.09961 0.068115
19749.30078 0.067426
19749.50977 0.066738
19749.71094 0.066049
19749.91016 0.065361
19750.11914 0.064734
19750.32031 0.064154
19750.51953 0.063574
19750.72070 0.062999
19750.92969 0.062419
19751.13086 0.061839
19751.33008 0.061259
19751.53906 0.060679
19751.74023 0.060099
19751.93945 0.059519
19752.14062 0.058917
19752.34961 0.058307
19752.55078 0.057697
19752.75000 0.057087
19752.96094 0.056477
19753.16016 0.055866
19753.35938 0.055256
19753.57031 0.054646
19753.76953 0.054036
19753.97070 0.053431
19754.16992 0.052946
19754.38086 0.052482
19754.58008 0.052018
19754.77930 0.051554
19754.99023 0.051089
19755.18945 0.050625
19755.39062 0.050161
19755.59961 0.049697
19755.80078 0.049232
19756.00000 0.048768
19756.21094 0.048349
19756.41016 0.04793
19756.60938 0.04751
19756.81055 0.047091
19757.01953 0.046671
19757.22070 0.046252
19757.41992 0.045832
19757.63086 0.045413
19757.83008 0.044993
19758.02930 0.044563
19758.24023 0.044075
19758.43945 0.043592
19758.64062 0.043104
19758.83984 0.042616
19759.05078 0.042128
19759.25000 0.04164
19759.44922 0.041153
19759.66016 0.040665
19759.85938 0.040177
19760.06055 0.03972
19760.26953 0.039334
19760.47070 0.038948
19760.66992 0.038562
19760.88086 0.038176
19761.08008 0.03779
19761.27930 0.037404
19761.48047 0.037018
19761.68945 0.036632
19761.89062 0.036246
19762.08984 0.035901
19762.30078 0.035605
19762.50000 0.035309
19762.69922 0.035012
19762.91016 0.034716
19763.10938 0.03442
19763.31055 0.034123
19763.51953 0.033827
19763.72070 0.033531
19763.91992 0.033235
19764.11914 0.03294
19764.33008 0.032647
19764.52930 0.032353
19764.73047 0.03206
19764.93945 0.031767
19765.14062 0.031473
19765.33984 0.03118
19765.55078 0.030886
19765.75000 0.030593
19765.94922 0.0303
19766.16016 0.029995
19766.35938 0.029687
19766.56055 0.029379
19766.76953 0.029071
19766.97070 0.028763
19767.16992 0.028455
19767.36914 0.028147
19767.58008 0.027839
19767.77930 0.027531
19767.98047 0.027223
19768.18945 0.027033
19768.39062 0.026854
19768.58984 0.026675
19768.80078 0.026496
19769.00000 0.026317
19769.19922 0.026138
19769.41016 0.025959
19769.60938 0.025779
19769.81055 0.0256
19770.01953 0.025412
19770.22070 0.025121
19770.41992 0.02483
19770.63086 0.024538
19770.83008 0.024244
19771.02930 0.023953
19771.24023 0.023661
19771.43945 0.02337
19771.64062 0.023079
19771.84961 0.022787
19772.05078 0.022531
19772.25000 0.022387
19772.46094 0.022243
19772.66016 0.022099
19772.85938 0.021955
19773.06055 0.021811
19773.26953 0.021667
19773.47070 0.021522
19773.66992 0.021378
19773.88086 0.021234
19774.08008 0.021061
19774.27930 0.020844
19774.49023 0.020626
19774.68945 0.020409
19774.89062 0.020191
19775.09961 0.019974
19775.30078 0.019754
19775.50000 0.019537
19775.71094 0.019319
19775.91016 0.019102
19776.10938 0.01893
19776.32031 0.018795
19776.51953 0.018661
19776.72070 0.018526
19776.92969 0.018391
19777.13086 0.018256
19777.33008 0.018121
19777.53906 0.017986
19777.74023 0.017851
19777.93945 0.017716
19778.14062 0.017604
19778.34961 0.017502
19778.55078 0.017398
19778.75977 0.017296
19778.96094 0.017194
19779.16016 0.017092
19779.36914 0.016989
19779.57031 0.016887
19779.76953 0.016785
19779.97070 0.016682
19780.17969 0.01648
19780.38086 0.016263
19780.58008 0.016046
19780.78906 0.015829
19780.99023 0.015611
19781.19922 0.015394
19781.40039 0.015177
19781.59961 0.01496
19781.80078 0.014743
19782.00977 0.014528
19782.21094 0.014359
19782.41016 0.014189
19782.61914 0.01402
19782.82031 0.01385
19783.01953 0.013681
19783.23047 0.01351
19783.42969 0.01334
19783.63086 0.013171
19783.83984 0.013001
19784.03906 0.012856
19784.24023 0.012806
19784.44922 0.012755
19784.65039 0.012705
19784.84961 0.012655
19785.06055 0.012605
19785.25977 0.012555
19785.46094 0.012504
19785.66992 0.012454
19785.86914 0.012404
19786.07031 0.012337
19786.27930 0.01224
19786.48047 0.012143
19786.67969 0.012046
19786.89062 0.011949
19787.08984 0.011851
19787.28906 0.011754
19787.50000 0.011657
19787.69922 0.01156
19787.90039 0.011464
19788.10938 0.011386
19788.31055 0.011326
19788.50977 0.011265
19788.72070 0.011204
19788.91992 0.011144
19789.11914 0.011084
19789.33008 0.011024
19789.52930 0.010963
19789.73047 0.010903
19789.93945 0.010843
19790.14062 0.010796
19790.34961 0.010755
19790.55078 0.010714
19790.75000 0.010674
19790.96094 0.010633
19791.16016 0.010593
19791.35938 0.010552
19791.56055 0.010512
19791.76953 0.010471
19791.97070 0.01043
19792.17969 0.010319
19792.38086 0.010197
19792.58008 0.010074
19792.78906 0.009952
19792.99023 0.009829
19793.18945 0.009707
19793.40039 0.009584
19793.59961 0.009462
19793.80078 0.00934
19794.00977 0.00922
19794.21094 0.009167
19794.41016 0.009114
19794.61914 0.009062
19794.82031 0.009009
19795.01953 0.008957
19795.23047 0.008904
19795.42969 0.008851
19795.63086 0.008798
19795.83984 0.008746
19796.03906 0.008697
19796.24023 0.008665
19796.44922 0.008632
19796.65039 0.0086
19796.85938 0.008567
19797.06055 0.008535
19797.25977 0.008502
19797.46094 0.00847
19797.66992 0.008437
19797.86914 0.008405
19798.08008 0.008319
19798.27930 0.008145
19798.48047 0.00797
19798.68945 0.007796
19798.89062 0.007622
19799.08984 0.007448
19799.30078 0.007272
19799.50000 0.007097
19799.69922 0.006923
19799.91016 0.006749
19800.10938 0.006645
19800.31055 0.006603
19800.51953 0.00656
19800.72070 0.006517
19800.91992 0.006475
19801.13086 0.006432
19801.33008 0.006389
19801.53906 0.006347
19801.74023 0.006304
19801.93945 0.006262
19802.14062 0.006212
19802.34961 0.006158
19802.55078 0.006105
19802.75977 0.006052
19802.96094 0.005999
19803.16016 0.005946
19803.36914 0.005892
19803.57031 0.005839
19803.76953 0.005786
19803.98047 0.005733
19804.17969 0.005738
19804.38086 0.005751
19804.58984 0.005764
19804.78906 0.005776
19804.99023 0.005789
19805.19922 0.005802
19805.40039 0.005814
19805.60938 0.005827
19805.81055 0.005839
19806.00977 0.005848
19806.22070 0.005795
19806.41992 0.005742
19806.61914 0.005689
19806.83008 0.005636
19807.02930 0.005583
19807.23047 0.00553
19807.43945 0.005477
19807.64062 0.005424
19807.83984 0.005371
19808.05078 0.005334
19808.25000 0.005349
19808.46094 0.005364
19808.66016 0.00538
19808.85938 0.005395
19809.07031 0.00541
19809.26953 0.005425
19809.47070 0.00544
19809.67969 0.005455
19809.88086 0.00547
19810.08008 0.005432
19810.28906 0.005317
19810.49023 0.005202
19810.69922 0.005086
19810.90039 0.004971
19811.09961 0.004857
19811.30078 0.004742
19811.50977 0.004626
19811.71094 0.004511
19811.91992 0.004396
19812.11914 0.004307
19812.32031 0.004235
19812.52930 0.004164
19812.73047 0.004093
19812.92969 0.004022
19813.14062 0.00395
19813.33984 0.003879
19813.53906 0.003807
19813.75000 0.003736
19813.94922 0.003664
19814.16016 0.003698
19814.35938 0.003763
19814.56055 0.003828
19814.76953 0.003894
19814.97070 0.003959
19815.16992 0.004025
19815.38086 0.00409
19815.58008 0.004156
19815.78906 0.004221
19815.99023 0.004286
19816.18945 0.004246
19816.40039 0.004201
19816.59961 0.004155
19816.80078 0.00411
19817.00977 0.004064
19817.21094 0.004018
19817.41016 0.003973
19817.61914 0.003927
19817.82031 0.003881
19818.02930 0.003824
19818.23047 0.003688
19818.42969 0.00355
19818.64062 0.003414
19818.83984 0.003278
19819.03906 0.003141
19819.25000 0.003004
19819.44922 0.002867
19819.65039 0.002731
19819.85938 0.002593
19820.06055 0.002517
19820.26953 0.002576
19820.47070 0.002635
19820.66992 0.002695
19820.88086 0.002754
19821.08008 0.002814
19821.28906 0.002873
19821.49023 0.002933
19821.68945 0.002992
19821.90039 0.003052
19822.09961 0.003049
19822.30078 0.002981
19822.50977 0.002913
19822.71094 0.002844
19822.91016 0.002776
19823.11914 0.002708
19823.32031 0.002639
19823.52930 0.002572
19823.73047 0.002504
19823.92969 0.002435
19824.14062 0.002419
19824.33984 0.00243
19824.53906 0.00244
19824.75000 0.00245
19824.94922 0.00246
19825.16016 0.00247
19825.35938 0.00248
19825.56055 0.00249
19825.76953 0.0025
19825.97070 0.00251
19826.16992 0.002456
19826.38086 0.002392
19826.58008 0.002327
19826.78906 0.002262
19826.99023 0.002197
19827.18945 0.002132
19827.40039 0.002068
19827.59961 0.002003
19827.80078 0.001938
19828.00977 0.001877
19828.21094 0.001906
19828.41992 0.001935
19828.61914 0.001964
19828.82031 0.001993
19829.02930 0.002022
19829.23047 0.002051
19829.42969 0.00208
19829.64062 0.002109
19829.83984 0.002138
19830.05078 0.002178
19830.25000 0.002252
19830.44922 0.002325
19830.66016 0.0024
19830.85938 0.002473
19831.06055 0.002547
19831.26953 0.002622
19831.47070 0.002695
19831.67969 0.002769
19831.88086 0.002844
19832.08008 0.00291
19832.28906 0.002965
19832.49023 0.003021
19832.69922 0.003076
19832.90039 0.003131
19833.09961 0.003187
19833.31055 0.003243
19833.50977 0.003299
19833.71094 0.003354
19833.91992 0.003409
19834.11914 0.003383
19834.33008 0.003304
19834.52930 0.003224
19834.73047 0.003144
19834.93945 0.003064
19835.14062 0.002984
19835.34961 0.002904
19835.55078 0.002824
19835.75000 0.002744
19835.96094 0.002664
19836.16016 0.002572
19836.36914 0.002474
19836.57031 0.002378
19836.76953 0.002281
19836.98047 0.002184
19837.17969 0.002088
19837.38086 0.00199
19837.58984 0.001894
19837.78906 0.001798
19838.00000 0.0017
19838.19922 0.001728
19838.40039 0.001757
19838.60938 0.001787
19838.81055 0.001817
19839.01953 0.001846
19839.22070 0.001876
19839.41992 0.001906
19839.63086 0.001936
19839.83008 0.001965
19840.03906 0.001995
19840.24023 0.002023
19840.43945 0.002052
19840.65039 0.002081
19840.84961 0.00211
19841.05078 0.002139
19841.25977 0.002167
19841.46094 0.002196
19841.66992 0.002225
19841.86914 0.002253
19842.07031 0.002259
19842.27930 0.002223
19842.48047 0.002187
19842.68945 0.002151
19842.89062 0.002115
19843.08984 0.002079
19843.30078 0.002043
19843.50000 0.002007
19843.71094 0.001972
19843.91016 0.001936
19844.10938 0.001781
19844.32031 0.001533
19844.51953 0.001283
19844.72070 0.001034
19844.92969 0.000784
19845.13086 0.000536
21829.64453 0.0
