# %ECSV 0.9
# ---
# datatype:
# - {name: wavelength, unit: Angstrom, datatype: float32}
# - {name: response, datatype: float32}
# meta: !!omap
# - {band_name: F190N}
# - {group_name: NICMOS2}
wavelength response
18798.15039 0.0
18798.33008 6e-05
18798.51953 0.000237
18798.69922 0.000414
18798.88086 0.000591
18799.07031 0.00077
18799.25000 0.000948
18799.43945 0.001125
18799.61914 0.001302
18799.80078 0.001479
18799.99023 0.001658
18800.16992 0.001667
18800.35938 0.001665
18800.53906 0.001662
18800.72070 0.00166
18800.91016 0.001657
18801.08984 0.001655
18801.27930 0.001653
18801.46094 0.00165
18801.64062 0.001648
18801.83008 0.001645
18802.00977 0.001644
18802.19922 0.001665
18802.38086 0.001685
18802.56055 0.001705
18802.75000 0.001725
18802.92969 0.001746
18803.11914 0.001766
18803.30078 0.001786
18803.48047 0.001807
18803.66992 0.001827
18803.84961 0.001847
18804.03906 0.001849
18804.22070 0.001776
18804.41016 0.001704
18804.58984 0.001632
18804.76953 0.001561
18804.96094 0.001488
18805.14062 0.001416
18805.33008 0.001344
18805.50977 0.001273
18805.69922 0.0012
18805.88086 0.001128
18806.06055 0.001079
18806.25000 0.001073
18806.42969 0.001068
18806.61914 0.001062
18806.80078 0.001056
18806.98047 0.001051
18807.16992 0.001045
18807.34961 0.00104
18807.53906 0.001034
18807.72070 0.001028
18807.90039 0.001023
18808.08984 0.001048
18808.26953 0.001108
18808.46094 0.001167
18808.64062 0.001226
18808.82031 0.001286
18809.00977 0.001345
18809.18945 0.001405
18809.38086 0.001464
18809.56055 0.001524
18809.75000 0.001583
18809.92969 0.001642
18810.10938 0.001658
18810.30078 0.001647
18810.48047 0.001637
18810.66992 0.001626
18810.84961 0.001616
18811.03906 0.001605
18811.22070 0.001595
18811.40039 0.001584
18811.58984 0.001574
18811.76953 0.001563
18811.96094 0.001553
18812.14062 0.001569
18812.32031 0.001593
18812.50977 0.001617
18812.68945 0.001641
18812.88086 0.001666
18813.06055 0.00169
18813.25000 0.001714
18813.42969 0.001739
18813.60938 0.001763
18813.80078 0.001787
18813.98047 0.001811
18814.16992 0.001751
18814.34961 0.001683
18814.53906 0.001613
18814.72070 0.001544
18814.90039 0.001475
18815.08984 0.001405
18815.26953 0.001336
18815.46094 0.001268
18815.64062 0.001198
18815.82031 0.001129
18816.00977 0.001065
18816.18945 0.001107
18816.38086 0.001148
18816.56055 0.00119
18816.75000 0.001231
18816.92969 0.001273
18817.10938 0.001314
18817.30078 0.001356
18817.48047 0.001398
18817.66992 0.001439
18817.84961 0.001481
18818.03906 0.00152
18818.22070 0.001548
18818.40039 0.001576
18818.58984 0.001604
18818.76953 0.001632
18818.96094 0.001661
18819.14062 0.001689
18819.32031 0.001717
18819.50977 0.001745
18819.68945 0.001773
18819.88086 0.001801
18820.06055 0.001851
18820.25000 0.001944
18820.42969 0.002036
18820.61914 0.00213
18820.80078 0.002222
18820.98047 0.002315
18821.16992 0.002408
18821.34961 0.002501
18821.53906 0.002593
18821.72070 0.002687
18821.90039 0.002779
18822.08984 0.00277
18822.26953 0.002647
18822.46094 0.002526
18822.64062 0.002405
18822.83008 0.002282
18823.00977 0.002161
18823.18945 0.00204
18823.38086 0.001917
18823.56055 0.001796
18823.75000 0.001674
18823.92969 0.001553
18824.11914 0.001539
18824.30078 0.00159
18824.48047 0.001641
18824.66992 0.001691
18824.84961 0.001742
18825.03906 0.001793
18825.22070 0.001843
18825.41016 0.001894
18825.58984 0.001944
18825.77930 0.001995
18825.96094 0.002046
18826.14062 0.002156
18826.33008 0.002285
18826.50977 0.002412
18826.69922 0.002539
18826.88086 0.002668
18827.06055 0.002795
18827.25000 0.002924
18827.42969 0.003051
18827.61914 0.003178
18827.80078 0.003307
18827.99023 0.003434
18828.16992 0.003449
18828.35938 0.003456
18828.53906 0.003462
18828.72070 0.003468
18828.91016 0.003474
18829.08984 0.00348
18829.27930 0.003486
18829.46094 0.003492
18829.65039 0.003498
18829.83008 0.003504
18830.00977 0.00351
18830.19922 0.003512
18830.38086 0.003515
18830.57031 0.003517
18830.75000 0.003519
18830.93945 0.003522
18831.11914 0.003524
18831.30078 0.003527
18831.49023 0.003529
18831.66992 0.003531
18831.85938 0.003534
18832.03906 0.00351
18832.23047 0.003398
18832.41016 0.003286
18832.59961 0.003175
18832.77930 0.003063
18832.96094 0.002951
18833.15039 0.00284
18833.33008 0.002727
18833.51953 0.002616
18833.69922 0.002505
18833.89062 0.002392
18834.07031 0.002362
18834.25977 0.002465
18834.43945 0.002566
18834.61914 0.002668
18834.81055 0.00277
18834.99023 0.002872
18835.17969 0.002974
18835.35938 0.003075
18835.55078 0.003178
18835.73047 0.003279
18835.91016 0.003381
18836.09961 0.003467
18836.27930 0.003539
18836.47070 0.003611
18836.65039 0.003682
18836.83984 0.003755
18837.01953 0.003826
18837.21094 0.003898
18837.39062 0.00397
18837.57031 0.004042
18837.75977 0.004114
18837.93945 0.004186
18838.13086 0.004231
18838.31055 0.004263
18838.50000 0.004296
18838.67969 0.004329
18838.86914 0.004362
18839.05078 0.004395
18839.23047 0.004428
18839.41992 0.004461
18839.59961 0.004493
18839.78906 0.004526
18839.97070 0.004559
18840.16016 0.004554
18840.33984 0.004543
18840.52930 0.004532
18840.71094 0.004521
18840.89062 0.004509
18841.08008 0.004498
18841.25977 0.004487
18841.44922 0.004476
18841.63086 0.004464
18841.82031 0.004453
18842.00000 0.004443
18842.18945 0.004516
18842.36914 0.004589
18842.55078 0.004662
18842.74023 0.004736
18842.91992 0.004809
18843.10938 0.004883
18843.28906 0.004956
18843.48047 0.005029
18843.66016 0.005103
18843.84961 0.005176
18844.02930 0.005239
18844.21094 0.005248
18844.40039 0.005258
18844.58008 0.005268
18844.76953 0.005278
18844.94922 0.005287
18845.14062 0.005297
18845.32031 0.005307
18845.50977 0.005317
18845.68945 0.005326
18845.88086 0.005336
18846.06055 0.005363
18846.24023 0.005425
18846.42969 0.005487
18846.60938 0.005549
18846.80078 0.005611
18846.98047 0.005673
18847.16992 0.005735
18847.34961 0.005797
18847.53906 0.005859
18847.72070 0.005921
18847.91016 0.005983
18848.08984 0.006041
18848.27930 0.006096
18848.46094 0.00615
18848.64062 0.006205
18848.83008 0.006259
18849.00977 0.006314
18849.19922 0.006368
18849.38086 0.006423
18849.57031 0.006477
18849.75000 0.006532
18849.93945 0.006586
18850.11914 0.006658
18850.30078 0.006737
18850.49023 0.006818
18850.66992 0.006898
18850.85938 0.006978
18851.03906 0.007058
18851.23047 0.007138
18851.41016 0.007218
18851.59961 0.007299
18851.77930 0.007378
18851.97070 0.007459
18852.15039 0.007439
18852.33984 0.007397
18852.51953 0.007355
18852.71094 0.007313
18852.89062 0.007271
18853.07031 0.007229
18853.25977 0.007187
18853.43945 0.007145
18853.63086 0.007104
18853.81055 0.007061
18854.00000 0.00702
18854.17969 0.007065
18854.36914 0.007112
18854.55078 0.007159
18854.73047 0.007205
18854.91992 0.007253
18855.09961 0.007299
18855.28906 0.007346
18855.47070 0.007393
18855.66016 0.00744
18855.83984 0.007487
18856.02930 0.007544
18856.21094 0.007658
18856.40039 0.007773
18856.58008 0.007887
18856.76953 0.008003
18856.94922 0.008117
18857.13086 0.008232
18857.32031 0.008348
18857.50000 0.008462
18857.68945 0.008577
18857.86914 0.008691
18858.06055 0.008799
18858.24023 0.008888
18858.42969 0.008979
18858.60938 0.009069
18858.80078 0.00916
18858.98047 0.00925
18859.16992 0.009341
18859.34961 0.009431
18859.53906 0.009521
18859.72070 0.009612
18859.90039 0.009702
18860.08984 0.009749
18860.26953 0.009749
18860.46094 0.009749
18860.64062 0.009749
18860.83008 0.009749
18861.00977 0.009749
18861.19922 0.009749
18861.38086 0.009749
18861.57031 0.009749
18861.75000 0.009749
18861.93945 0.009749
18862.11914 0.009822
18862.30078 0.009933
18862.49023 0.010045
18862.66992 0.010156
18862.85938 0.010268
18863.03906 0.010379
18863.23047 0.010491
18863.41016 0.010603
18863.59961 0.010714
18863.77930 0.010826
18863.97070 0.010937
18864.15039 0.01101
18864.33984 0.011074
18864.51953 0.011138
18864.71094 0.011202
18864.89062 0.011267
18865.08008 0.011331
18865.25977 0.011395
18865.44922 0.01146
18865.63086 0.011523
18865.81055 0.011588
18866.00000 0.011652
18866.17969 0.011844
18866.36914 0.012038
18866.55078 0.01223
18866.74023 0.012424
18866.91992 0.012616
18867.10938 0.01281
18867.28906 0.013002
18867.48047 0.013196
18867.66016 0.013389
18867.84961 0.013581
18868.02930 0.013766
18868.21094 0.013907
18868.40039 0.014049
18868.58984 0.014191
18868.76953 0.014332
18868.96094 0.014474
18869.14062 0.014614
18869.32031 0.014756
18869.50977 0.014897
18869.68945 0.015039
18869.88086 0.015181
18870.06055 0.015315
18870.25000 0.015438
18870.42969 0.01556
18870.61914 0.015683
18870.80078 0.015806
18870.99023 0.015928
18871.16992 0.016051
18871.35938 0.016173
18871.53906 0.016296
18871.73047 0.016419
18871.91016 0.016541
18872.09961 0.016682
18872.27930 0.01684
18872.46094 0.016999
18872.65039 0.017158
18872.83008 0.017315
18873.01953 0.017474
18873.19922 0.017632
18873.39062 0.017791
18873.57031 0.01795
18873.75977 0.018107
18873.93945 0.018266
18874.13086 0.018453
18874.31055 0.018649
18874.50000 0.018847
18874.67969 0.019044
18874.86914 0.019242
18875.05078 0.01944
18875.24023 0.019637
18875.41992 0.019835
18875.60938 0.020031
18875.78906 0.02023
18875.98047 0.020428
18876.16016 0.020592
18876.34961 0.020752
18876.52930 0.020913
18876.71094 0.021071
18876.90039 0.021232
18877.08008 0.021391
18877.26953 0.021551
18877.46094 0.021712
18877.64062 0.021871
18877.82031 0.022031
18878.00977 0.022192
18878.18945 0.022358
18878.38086 0.022527
18878.56055 0.022695
18878.75000 0.022861
18878.92969 0.023029
18879.11914 0.023196
18879.30078 0.023364
18879.49023 0.023532
18879.66992 0.023699
18879.85938 0.023867
18880.03906 0.024051
18880.23047 0.024288
18880.41016 0.024527
18880.59961 0.024766
18880.77930 0.025002
18880.97070 0.025241
18881.15039 0.025478
18881.33984 0.025717
18881.51953 0.025956
18881.71094 0.026192
18881.89062 0.026431
18882.08008 0.026675
18882.25977 0.026925
18882.44922 0.027177
18882.63086 0.027429
18882.81055 0.027679
18883.00000 0.027931
18883.18945 0.028183
18883.36914 0.028433
18883.55078 0.028685
18883.74023 0.028937
18883.91992 0.029186
18884.10938 0.029468
18884.28906 0.029769
18884.48047 0.030068
18884.66016 0.030369
18884.84961 0.030671
18885.02930 0.030969
18885.22070 0.031271
18885.40039 0.031572
18885.58984 0.031871
18885.76953 0.032172
18885.96094 0.032474
18886.14062 0.032718
18886.33008 0.032949
18886.50977 0.033179
18886.69922 0.033407
18886.88086 0.033638
18887.07031 0.033868
18887.25000 0.034097
18887.43945 0.034327
18887.61914 0.034558
18887.81055 0.034786
18887.99023 0.035016
18888.17969 0.035335
18888.35938 0.035654
18888.55078 0.035977
18888.73047 0.036299
18888.91992 0.036622
18889.09961 0.036941
18889.28906 0.037263
18889.47070 0.037586
18889.66016 0.037905
18889.83984 0.038228
18890.02930 0.038569
18890.21094 0.039014
18890.40039 0.039464
18890.58008 0.039914
18890.76953 0.040359
18890.94922 0.040809
18891.14062 0.041258
18891.32031 0.041708
18891.50977 0.042153
18891.68945 0.042603
18891.88086 0.043053
18892.06055 0.043485
18892.25000 0.043894
18892.42969 0.044303
18892.61914 0.044707
18892.80078 0.045116
18892.99023 0.045525
18893.16992 0.045934
18893.35938 0.046339
18893.53906 0.046748
18893.73047 0.047157
18893.91016 0.047561
18894.09961 0.048022
18894.27930 0.048532
18894.47070 0.049042
18894.65039 0.049547
18894.83984 0.050056
18895.01953 0.050566
18895.21094 0.051071
18895.39062 0.051581
18895.58008 0.05209
18895.75977 0.0526
18895.94922 0.053105
18896.13086 0.053713
18896.32031 0.054363
18896.50000 0.055013
18896.68945 0.055657
18896.86914 0.056307
18897.06055 0.056956
18897.24023 0.0576
18897.42969 0.05825
18897.60938 0.0589
18897.80078 0.059549
18897.98047 0.060193
18898.16992 0.060829
18898.34961 0.061464
18898.53906 0.062099
18898.72070 0.062727
18898.91016 0.063362
18899.08984 0.063997
18899.27930 0.064632
18899.46094 0.065261
18899.65039 0.065895
18899.83008 0.06653
18900.01953 0.067157
18900.19922 0.067776
18900.39062 0.068395
18900.57031 0.069014
18900.75977 0.069626
18900.93945 0.070245
18901.13086 0.070863
18901.31055 0.071482
18901.50000 0.072094
18901.67969 0.072713
18901.86914 0.073332
18902.05078 0.073952
18902.24023 0.074567
18902.41992 0.075189
18902.60938 0.075811
18902.78906 0.076434
18902.98047 0.077049
18903.16016 0.077671
18903.34961 0.078293
18903.52930 0.078915
18903.72070 0.079537
18903.90039 0.080153
18904.08984 0.080754
18904.26953 0.081331
18904.46094 0.081909
18904.64062 0.08248
18904.83008 0.083058
18905.00977 0.083635
18905.19922 0.084213
18905.38086 0.084784
18905.57031 0.085361
18905.75000 0.085939
18905.93945 0.086516
18906.11914 0.087195
18906.31055 0.087934
18906.49023 0.088674
18906.67969 0.089413
18906.86914 0.090152
18907.05078 0.090884
18907.23047 0.091623
18907.41992 0.092362
18907.60938 0.093101
18907.78906 0.093833
18907.97070 0.094572
18908.16016 0.095289
18908.34961 0.096002
18908.52930 0.096716
18908.71094 0.097421
18908.90039 0.098135
18909.08984 0.098848
18909.26953 0.099561
18909.46094 0.100274
18909.64062 0.10098
18909.83008 0.101693
18910.00977 0.102421
18910.19922 0.103367
18910.38086 0.104312
18910.57031 0.105248
18910.75000 0.106193
18910.93945 0.107139
18911.11914 0.108084
18911.31055 0.10903
18911.49023 0.109965
18911.67969 0.110911
18911.85938 0.111856
18912.05078 0.112791
18912.23047 0.113698
18912.41992 0.114594
18912.59961 0.1155
18912.78906 0.116406
18912.97070 0.117313
18913.16016 0.118219
18913.33984 0.119115
18913.52930 0.120022
18913.71094 0.120928
18913.90039 0.121834
18914.08984 0.122797
18914.26953 0.123816
18914.46094 0.124846
18914.64062 0.125875
18914.83008 0.126905
18915.00977 0.127934
18915.19922 0.128964
18915.38086 0.129983
18915.57031 0.131012
18915.75000 0.132042
18915.93945 0.133071
18916.11914 0.134116
18916.31055 0.135156
18916.49023 0.136208
18916.67969 0.13726
18916.85938 0.138312
18917.05078 0.139364
18917.23047 0.140416
18917.41992 0.141457
18917.59961 0.142508
18917.78906 0.14356
18917.97070 0.144612
18918.16016 0.145619
18918.34961 0.14662
18918.52930 0.14761
18918.71094 0.14861
18918.90039 0.14961
18919.08984 0.150611
18919.26953 0.151611
18919.46094 0.152611
18919.64062 0.153601
18919.83008 0.154602
18920.00977 0.155599
18920.19922 0.156554
18920.38086 0.157509
18920.57031 0.158464
18920.75000 0.159419
18920.93945 0.160364
18921.11914 0.161319
18921.31055 0.162273
18921.49023 0.163228
18921.67969 0.164183
18921.86914 0.165138
18922.05078 0.166019
18922.23047 0.16673
18922.41992 0.167442
18922.60938 0.168153
18922.78906 0.168865
18922.98047 0.169576
18923.16016 0.170287
18923.34961 0.170991
18923.52930 0.171703
18923.72070 0.172414
18923.90039 0.173125
18924.08984 0.17395
18924.26953 0.1749
18924.46094 0.17585
18924.64062 0.1768
18924.83008 0.17774
18925.00977 0.178691
18925.19922 0.179641
18925.38086 0.180591
18925.57031 0.181541
18925.75977 0.182491
18925.93945 0.183441
18926.11914 0.18427
18926.31055 0.185056
18926.50000 0.185841
18926.67969 0.186626
18926.86914 0.187412
18927.05078 0.188197
18927.24023 0.188982
18927.41992 0.189768
18927.60938 0.190545
18927.78906 0.19133
18927.98047 0.192116
18928.16016 0.192957
18928.34961 0.193805
18928.53906 0.194653
18928.72070 0.195501
18928.91016 0.196349
18929.08984 0.197197
18929.27930 0.198036
18929.46094 0.198884
18929.65039 0.199733
18929.83008 0.200581
18930.01953 0.20142
18930.19922 0.202178
18930.39062 0.202935
18930.57031 0.203693
18930.75977 0.204451
18930.94922 0.205208
18931.13086 0.205958
18931.31055 0.206716
18931.50000 0.207474
18931.68945 0.208231
18931.86914 0.208989
18932.06055 0.209755
18932.24023 0.21054
18932.42969 0.211325
18932.60938 0.21211
18932.80078 0.212895
18932.98047 0.213671
18933.16992 0.214457
18933.34961 0.215242
18933.53906 0.216027
18933.72070 0.216811
18933.91016 0.217596
18934.09961 0.218292
18934.27930 0.218903
18934.47070 0.219514
18934.65039 0.220125
18934.83984 0.220736
18935.01953 0.221341
18935.21094 0.221952
18935.39062 0.222563
18935.58008 0.223174
18935.75977 0.223785
18935.94922 0.224396
18936.13086 0.224931
18936.32031 0.225438
18936.50977 0.225944
18936.68945 0.226451
18936.88086 0.226958
18937.06055 0.227464
18937.25000 0.227971
18937.42969 0.228477
18937.61914 0.228979
18937.80078 0.229485
18937.99023 0.229992
18938.16992 0.230396
18938.35938 0.230793
18938.53906 0.23119
18938.73047 0.231587
18938.91992 0.231984
18939.09961 0.23238
18939.28906 0.232777
18939.47070 0.233174
18939.66016 0.233571
18939.83984 0.233968
18940.02930 0.234354
18940.21094 0.234682
18940.40039 0.23501
18940.58008 0.235334
18940.76953 0.235661
18940.96094 0.235989
18941.14062 0.236317
18941.33008 0.236644
18941.50977 0.236972
18941.69922 0.2373
18941.88086 0.237627
18942.07031 0.237952
18942.25000 0.23827
18942.43945 0.238588
18942.61914 0.238906
18942.81055 0.239225
18943.00000 0.239543
18943.17969 0.239861
18943.36914 0.240179
18943.55078 0.240498
18943.74023 0.240816
18943.91992 0.241134
18944.10938 0.241413
18944.28906 0.241664
18944.48047 0.241915
18944.66992 0.242166
18944.84961 0.242414
18945.03906 0.242665
18945.22070 0.242916
18945.41016 0.243167
18945.58984 0.243418
18945.77930 0.243669
18945.96094 0.24392
18946.15039 0.244066
18946.33008 0.244185
18946.51953 0.244304
18946.71094 0.244423
18946.89062 0.244542
18947.08008 0.244661
18947.25977 0.24478
18947.44922 0.244899
18947.63086 0.245018
18947.82031 0.245137
18948.00000 0.245258
18948.18945 0.245458
18948.38086 0.245658
18948.56055 0.245858
18948.75000 0.246058
18948.92969 0.246258
18949.11914 0.246458
18949.30078 0.246658
18949.49023 0.246858
18949.66992 0.247058
18949.85938 0.247258
18950.03906 0.247415
18950.23047 0.247438
18950.41992 0.247461
18950.59961 0.247483
18950.78906 0.247506
18950.97070 0.247529
18951.16016 0.247551
18951.33984 0.247574
18951.52930 0.247597
18951.71094 0.247619
18951.90039 0.247642
18952.08984 0.247702
18952.26953 0.247806
18952.46094 0.247909
18952.64062 0.248012
18952.83008 0.248116
18953.00977 0.248219
18953.19922 0.248323
18953.38086 0.248426
18953.57031 0.248529
18953.75977 0.248633
18953.93945 0.248736
18954.13086 0.248765
18954.31055 0.24876
18954.50000 0.248754
18954.67969 0.248749
18954.86914 0.248743
18955.05078 0.248738
18955.24023 0.248732
18955.42969 0.248726
18955.60938 0.248721
18955.80078 0.248715
18955.98047 0.24871
18956.16992 0.248738
18956.34961 0.24877
18956.53906 0.248801
18956.72070 0.248833
18956.91016 0.248865
18957.09961 0.248896
18957.27930 0.248928
18957.47070 0.24896
18957.65039 0.248992
18957.83984 0.249024
18958.02930 0.249049
18958.21094 0.249039
18958.40039 0.249028
18958.58008 0.249017
18958.76953 0.249006
18958.94922 0.248996
18959.14062 0.248985
18959.32031 0.248974
18959.50977 0.248964
18959.69922 0.248953
18959.88086 0.248942
18960.07031 0.248934
18960.25000 0.248932
18960.43945 0.24893
18960.61914 0.248927
18960.81055 0.248925
18960.99023 0.248922
18961.17969 0.24892
18961.36914 0.248917
18961.55078 0.248915
18961.74023 0.248913
18961.91992 0.24891
18962.10938 0.248894
18962.28906 0.248869
18962.48047 0.248843
18962.66992 0.248818
18962.84961 0.248793
18963.03906 0.248767
18963.22070 0.248742
18963.41016 0.248716
18963.58984 0.248691
18963.77930 0.248666
18963.96094 0.24864
18964.15039 0.248614
18964.33984 0.248587
18964.51953 0.24856
18964.71094 0.248533
18964.89062 0.248506
18965.08008 0.248479
18965.26953 0.248453
18965.44922 0.248426
18965.64062 0.248399
18965.82031 0.248372
18966.00977 0.248348
18966.18945 0.248381
18966.38086 0.248414
18966.56055 0.248447
18966.75000 0.24848
18966.93945 0.248513
18967.11914 0.248546
18967.31055 0.248579
18967.49023 0.248612
18967.67969 0.248646
18967.86914 0.248679
18968.05078 0.24868
18968.24023 0.248596
18968.41992 0.248512
18968.60938 0.248428
18968.78906 0.248345
18968.98047 0.248261
18969.16016 0.248177
18969.34961 0.248093
18969.53906 0.248009
18969.72070 0.247925
18969.91016 0.247841
18970.08984 0.247782
18970.27930 0.247749
18970.46094 0.247716
18970.65039 0.247682
18970.83984 0.247649
18971.01953 0.247615
18971.21094 0.247582
18971.39062 0.247549
18971.58008 0.247515
18971.76953 0.247482
18971.94922 0.247448
18972.14062 0.247457
18972.32031 0.247482
18972.50977 0.247506
18972.68945 0.247531
18972.88086 0.247555
18973.06055 0.24758
18973.25000 0.247604
18973.43945 0.247629
18973.61914 0.247654
18973.81055 0.247678
18973.99023 0.247703
18974.17969 0.247675
18974.36914 0.247646
18974.55078 0.247616
18974.74023 0.247587
18974.91992 0.247558
18975.10938 0.247528
18975.28906 0.247499
18975.48047 0.247469
18975.66992 0.24744
18975.84961 0.24741
18976.03906 0.247391
18976.22070 0.247412
18976.41016 0.247434
18976.59961 0.247455
18976.77930 0.247476
18976.97070 0.247497
18977.15039 0.247518
18977.33984 0.247539
18977.51953 0.247561
18977.71094 0.247582
18977.89062 0.247603
18978.08008 0.247556
18978.26953 0.247422
18978.44922 0.247289
18978.64062 0.247155
18978.82031 0.247022
18979.00977 0.246888
18979.19922 0.246755
18979.38086 0.24662
18979.57031 0.246486
18979.75000 0.246353
18979.93945 0.246219
18980.13086 0.246266
18980.31055 0.246399
18980.50000 0.246533
18980.67969 0.246669
18980.86914 0.246802
18981.05078 0.246936
18981.24023 0.24707
18981.42969 0.247204
18981.60938 0.247338
18981.80078 0.247473
18981.98047 0.247607
18982.16992 0.247576
18982.35938 0.24753
18982.53906 0.247485
18982.73047 0.247439
18982.91016 0.247393
18983.09961 0.247347
18983.28906 0.247301
18983.47070 0.247256
18983.66016 0.24721
18983.83984 0.247164
18984.02930 0.247132
18984.21094 0.247178
18984.40039 0.247223
18984.58984 0.247268
18984.76953 0.247313
18984.96094 0.247359
18985.14062 0.247404
18985.33008 0.24745
18985.51953 0.247495
18985.69922 0.247541
18985.89062 0.247586
18986.07031 0.247603
18986.25977 0.247576
18986.44922 0.247549
18986.63086 0.247522
18986.82031 0.247495
18987.00000 0.247468
18987.18945 0.247441
18987.38086 0.247414
18987.56055 0.247387
18987.75000 0.24736
18987.92969 0.247333
18988.11914 0.247326
18988.30078 0.247329
18988.49023 0.247333
18988.67969 0.247336
18988.85938 0.24734
18989.05078 0.247344
18989.23047 0.247347
18989.41992 0.247351
18989.60938 0.247354
18989.78906 0.247358
18989.98047 0.247362
18990.16016 0.247383
18990.34961 0.247407
18990.53906 0.247431
18990.72070 0.247454
18990.91016 0.247478
18991.08984 0.247502
18991.27930 0.247526
18991.46094 0.24755
18991.65039 0.247573
18991.83984 0.247597
18992.01953 0.247615
18992.21094 0.247588
18992.39062 0.247561
18992.58008 0.247534
18992.76953 0.247507
18992.94922 0.24748
18993.14062 0.247453
18993.32031 0.247426
18993.50977 0.247399
18993.69922 0.247372
18993.88086 0.247345
18994.07031 0.247418
18994.25000 0.247664
18994.43945 0.247909
18994.63086 0.248155
18994.81055 0.248403
18995.00000 0.248648
18995.17969 0.248894
18995.36914 0.249139
18995.55078 0.249385
18995.74023 0.249633
18995.92969 0.249878
18996.10938 0.249927
18996.30078 0.249851
18996.49023 0.249774
18996.66992 0.249698
18996.85938 0.249622
18997.03906 0.249546
18997.23047 0.24947
18997.41992 0.249393
18997.59961 0.249316
18997.78906 0.24924
18997.97070 0.249164
18998.16016 0.249178
18998.34961 0.249208
18998.52930 0.249237
18998.72070 0.249267
18998.90039 0.249296
18999.08984 0.249326
18999.27930 0.249355
18999.46094 0.249384
18999.65039 0.249414
18999.83008 0.249443
19000.01953 0.249473
19000.21094 0.249507
19000.39062 0.24954
19000.58008 0.249574
19000.75977 0.249607
19000.94922 0.24964
19001.13086 0.249673
19001.32031 0.249707
19001.50977 0.24974
19001.68945 0.249774
19001.88086 0.249807
19002.07031 0.249864
19002.25000 0.249963
19002.43945 0.250062
19002.61914 0.250161
19002.81055 0.250261
19003.00000 0.250359
19003.17969 0.250458
19003.36914 0.250558
19003.55078 0.250657
19003.74023 0.250756
19003.92969 0.250855
19004.10938 0.250857
19004.30078 0.250796
19004.48047 0.250736
19004.66992 0.250675
19004.85938 0.250614
19005.03906 0.250553
19005.23047 0.250492
19005.41016 0.250431
19005.59961 0.25037
19005.78906 0.25031
19005.97070 0.250249
19006.16016 0.250254
19006.34961 0.250271
19006.52930 0.250287
19006.72070 0.250304
19006.90039 0.250321
19007.08984 0.250337
19007.27930 0.250354
19007.46094 0.250371
19007.65039 0.250387
19007.83008 0.250404
19008.01953 0.250416
19008.21094 0.250384
19008.39062 0.250353
19008.58008 0.250322
19008.75977 0.250291
19008.94922 0.25026
19009.14062 0.250229
19009.32031 0.250198
19009.50977 0.250167
19009.69922 0.250136
19009.88086 0.250104
19010.07031 0.250069
19010.25000 0.250028
19010.43945 0.249988
19010.61914 0.249946
19010.81055 0.249905
19011.00000 0.249864
19011.17969 0.249823
19011.36914 0.249782
19011.56055 0.249741
19011.74023 0.2497
19011.92969 0.249658
19012.11914 0.249641
19012.30078 0.249637
19012.49023 0.249634
19012.66992 0.24963
19012.85938 0.249627
19013.03906 0.249623
19013.23047 0.24962
19013.41992 0.249616
19013.59961 0.249613
19013.78906 0.249609
19013.98047 0.249606
19014.16016 0.249541
19014.34961 0.249467
19014.53906 0.249393
19014.72070 0.249319
19014.91016 0.249245
19015.08984 0.249172
19015.27930 0.249098
19015.46094 0.249024
19015.65039 0.24895
19015.83984 0.248876
19016.01953 0.248813
19016.21094 0.248824
19016.40039 0.248834
19016.58008 0.248844
19016.76953 0.248854
19016.96094 0.248864
19017.14062 0.248874
19017.33008 0.248884
19017.50977 0.248894
19017.69922 0.248904
19017.89062 0.248915
19018.07031 0.248872
19018.25977 0.248747
19018.44922 0.24862
19018.63086 0.248495
19018.82031 0.24837
19019.00000 0.248244
19019.18945 0.248118
19019.36914 0.247993
19019.56055 0.247867
19019.75000 0.247742
19019.92969 0.247617
19020.11914 0.247609
19020.31055 0.247665
19020.49023 0.247723
19020.67969 0.247779
19020.86914 0.247836
19021.05078 0.247893
19021.24023 0.24795
19021.41992 0.248006
19021.60938 0.248064
19021.80078 0.24812
19021.98047 0.248177
19022.16992 0.248154
19022.35938 0.248123
19022.53906 0.248092
19022.73047 0.248061
19022.91016 0.24803
19023.09961 0.248
19023.28906 0.247969
19023.47070 0.247938
19023.66016 0.247907
19023.84961 0.247876
19024.02930 0.247851
19024.22070 0.247851
19024.40039 0.247852
19024.58984 0.247853
19024.77930 0.247854
19024.96094 0.247855
19025.15039 0.247856
19025.33984 0.247857
19025.51953 0.247858
19025.71094 0.247859
19025.89062 0.24786
19026.08008 0.247846
19026.26953 0.247812
19026.44922 0.247779
19026.64062 0.247746
19026.83008 0.247712
19027.00977 0.247679
19027.19922 0.247645
19027.38086 0.247612
19027.57031 0.247579
19027.75977 0.247545
19027.93945 0.247512
19028.13086 0.247457
19028.32031 0.247393
19028.50000 0.247329
19028.68945 0.247264
19028.86914 0.2472
19029.06055 0.247136
19029.25000 0.247072
19029.42969 0.247008
19029.61914 0.246943
19029.81055 0.246879
19029.99023 0.246815
19030.17969 0.24682
19030.36914 0.246827
19030.55078 0.246834
19030.74023 0.246841
19030.91992 0.246848
19031.10938 0.246855
19031.30078 0.246862
19031.48047 0.246869
19031.66992 0.246876
19031.85938 0.246883
19032.03906 0.246874
19032.23047 0.246812
19032.41992 0.24675
19032.59961 0.246688
19032.78906 0.246626
19032.97070 0.246563
19033.16016 0.246501
19033.34961 0.246438
19033.52930 0.246376
19033.72070 0.246313
19033.91016 0.246251
19034.08984 0.246229
19034.27930 0.246249
19034.46094 0.246269
19034.65039 0.246289
19034.83984 0.246309
19035.01953 0.246328
19035.21094 0.246348
19035.40039 0.246368
19035.58008 0.246388
19035.76953 0.246408
19035.96094 0.246428
19036.14062 0.246337
19036.33008 0.246214
19036.51953 0.246088
19036.69922 0.245965
19036.89062 0.24584
19037.07031 0.245716
19037.25977 0.245591
19037.44922 0.245468
19037.63086 0.245344
19037.82031 0.245219
19038.00977 0.245095
19038.18945 0.244968
19038.38086 0.244842
19038.57031 0.244716
19038.75000 0.24459
19038.93945 0.244464
19039.11914 0.244337
19039.31055 0.244211
19039.50000 0.244085
19039.67969 0.243959
19039.86914 0.243832
19040.06055 0.243753
19040.24023 0.243782
19040.42969 0.24381
19040.61914 0.243838
19040.80078 0.243867
19040.99023 0.243895
19041.17969 0.243924
19041.35938 0.243952
19041.55078 0.243981
19041.73047 0.24401
19041.91992 0.244038
19042.10938 0.24394
19042.28906 0.243748
19042.48047 0.243557
19042.66992 0.243367
19042.84961 0.243174
19043.03906 0.242984
19043.23047 0.242791
19043.41016 0.242601
19043.59961 0.242408
19043.78906 0.242218
19043.97070 0.242025
19044.16016 0.242002
19044.34961 0.242009
19044.52930 0.242015
19044.72070 0.242021
19044.90039 0.242027
19045.08984 0.242033
19045.27930 0.242039
19045.46094 0.242046
19045.65039 0.242052
19045.83984 0.242058
19046.01953 0.242053
19046.21094 0.241966
19046.40039 0.241879
19046.58008 0.241792
19046.76953 0.241705
19046.96094 0.241619
19047.14062 0.241532
19047.33008 0.241445
19047.51953 0.241358
19047.69922 0.241271
19047.89062 0.241184
19048.07031 0.241072
19048.25977 0.240919
19048.44922 0.240768
19048.63086 0.240615
19048.82031 0.240464
19049.00977 0.240311
19049.18945 0.24016
19049.38086 0.240007
19049.57031 0.239856
19049.75000 0.239703
19049.93945 0.239552
19050.13086 0.239382
19050.31055 0.239201
19050.50000 0.239022
19050.68945 0.238841
19050.86914 0.238662
19051.06055 0.238481
19051.24023 0.238301
19051.42969 0.23812
19051.61914 0.237941
19051.80078 0.23776
19051.99023 0.237581
19052.17969 0.237456
19052.36914 0.237333
19052.55078 0.237212
19052.74023 0.237089
19052.91992 0.236968
19053.10938 0.236845
19053.30078 0.236724
19053.48047 0.236601
19053.66992 0.23648
19053.85938 0.236357
19054.03906 0.236221
19054.23047 0.236034
19054.41992 0.235849
19054.59961 0.235662
19054.78906 0.235477
19054.98047 0.23529
19055.16016 0.235105
19055.34961 0.234919
19055.53906 0.234734
19055.72070 0.234547
19055.91016 0.234362
19056.09961 0.234223
19056.27930 0.23413
19056.47070 0.234037
19056.65039 0.233945
19056.83984 0.233852
19057.02930 0.23376
19057.21094 0.233666
19057.40039 0.233573
19057.58984 0.233481
19057.77930 0.233388
19057.96094 0.233295
19058.15039 0.233007
19058.33008 0.232671
19058.51953 0.232331
19058.71094 0.231995
19058.89062 0.231656
19059.08008 0.23132
19059.26953 0.23098
19059.44922 0.230644
19059.64062 0.230304
19059.83008 0.229965
19060.00977 0.229634
19060.19922 0.229367
19060.39062 0.229102
19060.57031 0.228834
19060.75977 0.22857
19060.94922 0.228302
19061.13086 0.228038
19061.32031 0.22777
19061.50977 0.227505
19061.68945 0.227238
19061.88086 0.22697
19062.07031 0.226636
19062.25000 0.226173
19062.43945 0.225715
19062.63086 0.225252
19062.81055 0.224794
19063.00000 0.224331
19063.18945 0.223873
19063.36914 0.22341
19063.56055 0.222947
19063.75000 0.222489
19063.92969 0.222026
19064.11914 0.221635
19064.31055 0.221277
19064.49023 0.220923
19064.67969 0.220565
19064.86914 0.220207
19065.05078 0.219853
19065.24023 0.219495
19065.42969 0.219141
19065.60938 0.218783
19065.80078 0.218429
19065.99023 0.218071
19066.16992 0.217697
19066.35938 0.217326
19066.55078 0.216951
19066.73047 0.21658
19066.91992 0.216204
19067.10938 0.215833
19067.28906 0.215458
19067.48047 0.215083
19067.66992 0.214712
19067.84961 0.214337
19068.03906 0.213947
19068.23047 0.213486
19068.41016 0.213025
19068.59961 0.212568
19068.78906 0.212106
19068.97070 0.21165
19069.16016 0.211188
19069.34961 0.210732
19069.52930 0.21027
19069.72070 0.209809
19069.91016 0.209352
19070.08984 0.208871
19070.27930 0.208376
19070.47070 0.207876
19070.65039 0.207376
19070.83984 0.206881
19071.02930 0.20638
19071.21094 0.205885
19071.40039 0.205385
19071.58984 0.204885
19071.76953 0.20439
19071.96094 0.203889
19072.15039 0.203412
19072.33008 0.202934
19072.51953 0.202456
19072.71094 0.201983
19072.89062 0.201505
19073.08008 0.201027
19073.26953 0.200554
19073.46094 0.200076
19073.64062 0.199604
19073.83008 0.199126
19074.01953 0.198638
19074.19922 0.198055
19074.39062 0.197465
19074.57031 0.196881
19074.75977 0.196291
19074.94922 0.195702
19075.13086 0.195118
19075.32031 0.194528
19075.50977 0.193938
19075.69922 0.193354
19075.88086 0.192764
19076.07031 0.192154
19076.25977 0.191491
19076.43945 0.190828
19076.63086 0.190171
19076.82031 0.189508
19077.00000 0.188845
19077.18945 0.188189
19077.38086 0.187526
19077.56055 0.18687
19077.75000 0.186207
19077.93945 0.185544
19078.11914 0.184863
19078.31055 0.184163
19078.50000 0.183464
19078.67969 0.182771
19078.86914 0.182071
19079.06055 0.181371
19079.24023 0.180679
19079.42969 0.179979
19079.61914 0.179286
19079.80078 0.178586
19079.99023 0.177886
19080.17969 0.177134
19080.36914 0.176371
19080.55078 0.175608
19080.74023 0.174853
19080.92969 0.17409
19081.10938 0.173327
19081.30078 0.172572
19081.49023 0.171809
19081.66992 0.171046
19081.85938 0.170291
19082.05078 0.169523
19082.23047 0.168739
19082.41992 0.167963
19082.60938 0.16718
19082.78906 0.166396
19082.98047 0.165621
19083.16992 0.164837
19083.35938 0.164053
19083.53906 0.163278
19083.73047 0.162494
19083.91992 0.16171
19084.09961 0.16087
19084.28906 0.159966
19084.48047 0.159061
19084.66016 0.158167
19084.84961 0.157263
19085.03906 0.156358
19085.22070 0.155464
19085.41016 0.154559
19085.59961 0.153655
19085.77930 0.15276
19085.97070 0.151856
19086.16016 0.151078
19086.33984 0.150331
19086.52930 0.149576
19086.72070 0.14882
19086.90039 0.148073
19087.08984 0.147318
19087.27930 0.146563
19087.46094 0.145816
19087.65039 0.145061
19087.83984 0.144306
19088.02930 0.143547
19088.21094 0.14271
19088.40039 0.141873
19088.58984 0.141045
19088.76953 0.140208
19088.96094 0.139372
19089.15039 0.138535
19089.33008 0.137706
19089.51953 0.136869
19089.71094 0.136032
19089.89062 0.135204
19090.08008 0.134442
19090.26953 0.133775
19090.46094 0.133115
19090.64062 0.132448
19090.83008 0.131781
19091.01953 0.131121
19091.19922 0.130454
19091.39062 0.129787
19091.58008 0.12912
19091.75977 0.12846
19091.94922 0.127793
19092.14062 0.126971
19092.32031 0.126104
19092.50977 0.125227
19092.69922 0.12435
19092.89062 0.123474
19093.07031 0.122606
19093.25977 0.12173
19093.44922 0.120853
19093.63086 0.119985
19093.82031 0.119109
19094.00977 0.118237
19094.19922 0.117493
19094.38086 0.116756
19094.57031 0.116012
19094.75977 0.115267
19094.93945 0.11453
19095.13086 0.113786
19095.32031 0.113042
19095.50000 0.112297
19095.68945 0.11156
19095.88086 0.110816
19096.06055 0.110048
19096.25000 0.109245
19096.43945 0.108434
19096.63086 0.107622
19096.81055 0.106811
19097.00000 0.106008
19097.18945 0.105196
19097.36914 0.104384
19097.56055 0.103573
19097.75000 0.10277
19097.92969 0.101958
19098.11914 0.101253
19098.31055 0.100614
19098.49023 0.099968
19098.67969 0.099322
19098.86914 0.098676
19099.05078 0.098037
19099.24023 0.097391
19099.42969 0.096745
19099.61914 0.096099
19099.80078 0.095459
19099.99023 0.094813
19100.17969 0.094138
19100.36914 0.093462
19100.55078 0.092793
19100.74023 0.092117
19100.92969 0.09144
19101.10938 0.090764
19101.30078 0.090095
19101.49023 0.089418
19101.66992 0.088742
19101.85938 0.088066
19102.05078 0.087404
19102.23047 0.086758
19102.41992 0.086113
19102.60938 0.085467
19102.78906 0.084828
19102.98047 0.084182
19103.16992 0.083537
19103.35938 0.082891
19103.53906 0.082252
19103.73047 0.081606
19103.91992 0.08096
19104.10938 0.080367
19104.28906 0.079814
19104.48047 0.079267
19104.66992 0.078714
19104.84961 0.078161
19105.03906 0.077609
19105.23047 0.077061
19105.41016 0.076509
19105.59961 0.075956
19105.78906 0.075403
19105.98047 0.07485
19106.16016 0.07423
19106.34961 0.073593
19106.53906 0.072956
19106.72070 0.072319
19106.91016 0.071689
19107.09961 0.071051
19107.28906 0.070414
19107.47070 0.069777
19107.66016 0.06914
19107.84961 0.068509
19108.02930 0.067894
19108.22070 0.067381
19108.41016 0.066868
19108.58984 0.06636
19108.77930 0.065847
19108.97070 0.065333
19109.16016 0.06482
19109.33984 0.064307
19109.52930 0.063799
19109.72070 0.063285
19109.90039 0.062772
19110.08984 0.062181
19110.27930 0.06151
19110.46094 0.060846
19110.65039 0.060175
19110.83984 0.059503
19111.02930 0.058832
19111.21094 0.058161
19111.40039 0.057496
19111.58984 0.056825
19111.77930 0.056154
19111.96094 0.055482
19112.15039 0.054963
19112.33984 0.054487
19112.51953 0.054006
19112.71094 0.053524
19112.90039 0.053043
19113.08984 0.052561
19113.26953 0.052085
19113.46094 0.051603
19113.65039 0.051122
19113.83008 0.050641
19114.01953 0.050168
19114.21094 0.049768
19114.39062 0.049371
19114.58008 0.048971
19114.76953 0.04857
19114.96094 0.04817
19115.14062 0.047769
19115.33008 0.047372
19115.51953 0.046972
19115.71094 0.046571
19115.89062 0.04617
19116.08008 0.045796
19116.26953 0.045457
19116.44922 0.045121
19116.64062 0.044782
19116.83008 0.044443
19117.01953 0.044104
19117.19922 0.043765
19117.39062 0.043425
19117.58008 0.04309
19117.75977 0.04275
19117.94922 0.042411
19118.14062 0.042102
19118.33008 0.041803
19118.50977 0.041505
19118.69922 0.041209
19118.89062 0.04091
19119.07031 0.040612
19119.25977 0.040313
19119.44922 0.040014
19119.64062 0.039716
19119.82031 0.03942
19120.00977 0.039125
19120.19922 0.038908
19120.38086 0.038691
19120.57031 0.038474
19120.75977 0.038257
19120.94922 0.03804
19121.13086 0.037825
19121.32031 0.037608
19121.50977 0.037391
19121.69922 0.037174
19121.88086 0.036957
19122.07031 0.036688
19122.25977 0.036335
19122.43945 0.035985
19122.63086 0.035632
19122.82031 0.035278
19123.00977 0.034924
19123.18945 0.034571
19123.38086 0.034217
19123.57031 0.033864
19123.75000 0.033514
19123.93945 0.03316
19124.13086 0.032852
19124.32031 0.032563
19124.50000 0.032275
19124.68945 0.031987
19124.88086 0.031698
19125.06055 0.031413
19125.25000 0.031125
19125.43945 0.030836
19125.63086 0.030548
19125.81055 0.03026
19126.00000 0.029971
19126.18945 0.029678
19126.38086 0.029386
19126.56055 0.029096
19126.75000 0.028803
19126.93945 0.02851
19127.13086 0.028218
19127.31055 0.027925
19127.50000 0.027632
19127.68945 0.027339
19127.86914 0.027046
19128.06055 0.026795
19128.25000 0.026628
19128.43945 0.026459
19128.61914 0.02629
19128.81055 0.026121
19129.00000 0.025952
19129.18945 0.025783
19129.36914 0.025614
19129.56055 0.025445
19129.75000 0.025276
19129.92969 0.025109
19130.11914 0.024859
19130.31055 0.024565
19130.50000 0.024271
19130.67969 0.023977
19130.86914 0.023683
19131.06055 0.023389
19131.25000 0.023094
19131.42969 0.0228
19131.61914 0.022506
19131.81055 0.022215
19131.99023 0.021921
19132.17969 0.02177
19132.36914 0.021623
19132.56055 0.021477
19132.74023 0.02133
19132.92969 0.021184
19133.11914 0.021038
19133.31055 0.020891
19133.49023 0.020745
19133.67969 0.020598
19133.86914 0.020453
19134.05078 0.020295
19134.24023 0.020108
19134.42969 0.019921
19134.61914 0.019734
19134.80078 0.019546
19134.99023 0.019359
19135.17969 0.019172
19135.36914 0.018985
19135.55078 0.018798
19135.74023 0.018611
19135.92969 0.018424
19136.11914 0.018305
19136.30078 0.018227
19136.49023 0.018149
19136.67969 0.018071
19136.86914 0.017993
19137.05078 0.017915
19137.24023 0.017837
19137.42969 0.017759
19137.61914 0.017681
19137.80078 0.017603
19137.99023 0.017525
19138.17969 0.01741
19138.36914 0.017293
19138.55078 0.017176
19138.74023 0.017059
19138.92969 0.016942
19139.10938 0.016827
19139.30078 0.01671
19139.49023 0.016593
19139.67969 0.016476
19139.85938 0.016359
19140.05078 0.016218
19140.24023 0.01601
19140.42969 0.015803
19140.60938 0.015595
19140.80078 0.015388
19140.99023 0.01518
19141.17969 0.014973
19141.35938 0.014765
19141.55078 0.014558
19141.74023 0.01435
19141.92969 0.014143
19142.10938 0.014009
19142.30078 0.013925
19142.49023 0.01384
19142.67969 0.013755
19142.85938 0.013671
19143.05078 0.013587
19143.24023 0.013502
19143.41992 0.013417
19143.60938 0.013332
19143.80078 0.013248
19143.99023 0.013163
19144.16992 0.013124
19144.35938 0.013089
19144.55078 0.013054
19144.74023 0.013019
19144.91992 0.012984
19145.10938 0.012949
19145.30078 0.012913
19145.49023 0.012878
19145.66992 0.012843
19145.85938 0.012808
19146.05078 0.012757
19146.24023 0.012659
19146.41992 0.012561
19146.60938 0.012463
19146.80078 0.012365
19146.99023 0.012267
19147.16992 0.01217
19147.35938 0.012072
19147.55078 0.011974
19147.74023 0.011876
19147.91992 0.011778
19148.10938 0.011653
19148.30078 0.01151
19148.49023 0.011366
19148.66992 0.011223
19148.85938 0.011079
19149.05078 0.010936
19149.24023 0.010792
19149.41992 0.010649
19149.60938 0.010505
19149.80078 0.010362
19149.99023 0.010218
19150.16992 0.010141
19150.35938 0.01007
19150.55078 0.009998
19150.74023 0.009926
19150.91992 0.009854
19151.10938 0.009783
19151.30078 0.009711
19151.49023 0.009639
19151.66992 0.009567
19151.85938 0.009496
19152.05078 0.009429
19152.24023 0.009375
19152.41992 0.009322
19152.60938 0.009269
19152.80078 0.009216
19152.99023 0.009163
19153.16992 0.00911
19153.35938 0.009057
19153.55078 0.009003
19153.74023 0.00895
19153.91992 0.008897
19154.10938 0.008854
19154.30078 0.008817
19154.49023 0.00878
19154.66992 0.008743
19154.85938 0.008706
19155.05078 0.008669
19155.24023 0.008632
19155.41992 0.008596
19155.60938 0.008559
19155.80078 0.008522
19155.99023 0.008485
19156.16992 0.00835
19156.35938 0.008207
19156.55078 0.008064
19156.74023 0.007921
19156.91992 0.007778
19157.10938 0.007635
19157.30078 0.007492
19157.49023 0.007349
19157.66992 0.007206
19157.85938 0.007063
19158.05078 0.006941
19158.24023 0.00688
19158.41992 0.006818
19158.60938 0.006757
19158.80078 0.006695
19158.99023 0.006634
19159.17969 0.006573
19159.35938 0.006512
19159.55078 0.006451
19159.74023 0.006389
19159.92969 0.006328
19160.10938 0.006294
19160.30078 0.006277
19160.49023 0.00626
19160.67969 0.006244
19160.85938 0.006227
19161.05078 0.00621
19161.24023 0.006193
19161.42969 0.006177
19161.60938 0.00616
19161.80078 0.006143
19161.99023 0.006126
19162.17969 0.00613
19162.35938 0.006135
19162.55078 0.00614
19162.74023 0.006145
19162.92969 0.00615
19163.11914 0.006155
19163.30078 0.00616
19163.49023 0.006165
19163.67969 0.00617
19163.86914 0.006175
19164.05078 0.006167
19164.24023 0.006124
19164.42969 0.006082
19164.61914 0.006039
19164.80078 0.005996
19164.99023 0.005953
19165.17969 0.005911
19165.36914 0.005868
19165.55078 0.005825
19165.74023 0.005782
19165.92969 0.005739
19166.11914 0.005687
19166.30078 0.00563
19166.49023 0.005572
19166.67969 0.005514
19166.86914 0.005457
19167.05078 0.005399
19167.24023 0.005341
19167.42969 0.005284
19167.61914 0.005226
19167.81055 0.005168
19167.99023 0.00511
19168.17969 0.00509
19168.36914 0.005071
19168.56055 0.005053
19168.74023 0.005034
19168.92969 0.005016
19169.11914 0.004997
19169.31055 0.004978
19169.49023 0.00496
19169.67969 0.004941
19169.86914 0.004922
19170.06055 0.004912
19170.25000 0.004921
19170.42969 0.004929
19170.61914 0.004938
19170.81055 0.004947
19171.00000 0.004955
19171.17969 0.004964
19171.36914 0.004972
19171.56055 0.004981
19171.75000 0.00499
19171.93945 0.004998
19172.11914 0.004984
19172.31055 0.004958
19172.50000 0.004932
19172.68945 0.004905
19172.86914 0.004879
19173.06055 0.004853
19173.25000 0.004827
19173.43945 0.0048
19173.61914 0.004774
19173.81055 0.004748
19174.00000 0.004722
19174.18945 0.004663
19174.38086 0.004605
19174.56055 0.004547
19174.75000 0.004489
19174.93945 0.004431
19175.13086 0.004372
19175.31055 0.004314
19175.50000 0.004255
19175.68945 0.004197
19175.88086 0.004139
19176.06055 0.004079
19176.25000 0.004015
19176.43945 0.003951
19176.63086 0.003886
19176.82031 0.003822
19177.00000 0.003758
19177.18945 0.003694
19177.38086 0.003631
19177.57031 0.003567
19177.75000 0.003503
19177.93945 0.003438
19178.13086 0.003414
19178.32031 0.003408
19178.50977 0.003401
19178.68945 0.003395
19178.88086 0.003388
19179.07031 0.003382
19179.25977 0.003375
19179.44922 0.003368
19179.63086 0.003362
19179.82031 0.003355
19180.00977 0.00335
19180.19922 0.003366
19180.38086 0.003382
19180.57031 0.003398
19180.75977 0.003415
19180.94922 0.003431
19181.13086 0.003447
19181.32031 0.003463
19181.50977 0.003479
19181.69922 0.003495
19181.89062 0.003512
19182.07031 0.003502
19182.25977 0.003454
19182.44922 0.003406
19182.64062 0.003358
19182.82031 0.003311
19183.00977 0.003262
19183.19922 0.003214
19183.39062 0.003166
19183.58008 0.003118
19183.75977 0.00307
19183.94922 0.003022
19184.14062 0.002992
19184.33008 0.002969
19184.51953 0.002945
19184.69922 0.002922
19184.89062 0.002898
19185.08008 0.002875
19185.26953 0.002851
19185.46094 0.002828
19185.64062 0.002804
19185.83008 0.002781
19186.01953 0.002757
19186.21094 0.002733
19186.39062 0.002708
19186.58008 0.002684
19186.76953 0.00266
19186.96094 0.002636
19187.14062 0.002611
19187.33008 0.002587
19187.51953 0.002562
19187.71094 0.002538
19187.90039 0.002514
19188.08008 0.002497
19188.26953 0.002489
19188.46094 0.002481
19188.65039 0.002473
19188.83984 0.002465
19189.01953 0.002458
19189.21094 0.00245
19189.40039 0.002442
19189.58984 0.002434
19189.77930 0.002426
19189.96094 0.002418
19190.15039 0.002347
19190.33984 0.00226
19190.52930 0.002173
19190.71094 0.002087
19190.90039 0.002
19191.08984 0.001913
19191.27930 0.001826
19191.47070 0.001739
19191.65039 0.001653
19191.83984 0.001566
19192.02930 0.001497
19192.22070 0.001523
19192.41016 0.001548
19192.58984 0.001574
19192.77930 0.001599
19192.97070 0.001625
19193.16016 0.00165
19193.34961 0.001676
19193.52930 0.001701
19193.72070 0.001727
19193.91016 0.001752
19194.09961 0.00172
19194.28906 0.001634
19194.47070 0.001549
19194.66016 0.001463
19194.84961 0.001376
19195.03906 0.00129
19195.22070 0.001205
19195.41016 0.001119
19195.59961 0.001032
19195.78906 0.000947
19195.98047 0.000861
19196.16016 0.000865
19196.34961 0.000882
19196.53906 0.000899
19196.73047 0.000916
19196.91992 0.000933
19197.09961 0.00095
19197.28906 0.000967
19197.48047 0.000984
19197.66992 0.001001
19197.85938 0.001018
19198.03906 0.001068
19198.23047 0.001224
19198.41992 0.001379
19198.60938 0.001535
19198.78906 0.00169
19198.98047 0.001847
19199.16992 0.002003
19199.35938 0.002159
19199.55078 0.002314
19199.74023 0.002471
19199.91992 0.002627
19200.10938 0.002704
19200.30078 0.002728
19200.49023 0.002752
19200.67969 0.002775
19200.85938 0.002799
19201.05078 0.002823
19201.24023 0.002846
19201.42969 0.00287
19201.61914 0.002894
19201.80078 0.002917
19201.99023 0.002941
19202.17969 0.002831
19202.36914 0.002716
19202.55078 0.0026
19202.74023 0.002484
19202.92969 0.002368
19203.11914 0.002253
19203.31055 0.002136
19203.50000 0.002021
19203.67969 0.001905
19203.86914 0.00179
19204.06055 0.001718
19204.25000 0.001742
19204.43945 0.001767
19204.61914 0.001791
19204.81055 0.001816
19205.00000 0.00184
19205.18945 0.001864
19205.36914 0.001889
19205.56055 0.001913
19205.75000 0.001937
19205.93945 0.001962
19206.13086 0.00192
19206.32031 0.001848
19206.50000 0.001776
19206.68945 0.001705
19206.88086 0.001632
19207.07031 0.00156
19207.25977 0.001488
19207.44922 0.001416
19207.63086 0.001344
19207.82031 0.001272
19208.00977 0.001203
19208.19922 0.001215
19208.38086 0.001227
19208.57031 0.001239
19208.75977 0.001251
19208.94922 0.001263
19209.14062 0.001275
19209.32031 0.001286
19209.50977 0.001298
19209.69922 0.00131
19209.89062 0.001322
19210.08008 0.001325
19210.26953 0.001316
19210.44922 0.001306
19210.64062 0.001297
19210.83008 0.001287
19211.01953 0.001278
19211.21094 0.001268
19211.39062 0.001259
19211.58008 0.001249
19211.76953 0.00124
19211.96094 0.00123
19212.15039 0.001233
19212.33008 0.00124
19212.51953 0.001247
19212.71094 0.001254
19212.90039 0.001261
19213.08984 0.001268
19213.27930 0.001275
19213.46094 0.001281
19213.65039 0.001288
19213.83984 0.001295
19214.02930 0.001278
19214.21094 0.001119
19214.40039 0.000959
19214.58984 0.0008
19214.77930 0.000641
19214.97070 0.000481
21136.46875 0.0
