# %ECSV 0.9
# ---
# datatype:
# - {name: wavelength, unit: Angstrom, datatype: float32}
# - {name: response, datatype: float32}
# meta: !!omap
# - {band_name: F140W}
# - {group_name: WFC3_IR}
wavelength response
10587.53711 0.0
11763.92969 0.00041
11764.88965 0.000425
11765.83984 0.000441
11766.79980 0.000457
11767.75000 0.000472
11768.70996 0.000488
11769.66016 0.000503
11770.61035 0.000519
11771.57031 0.000534
11772.51953 0.00055
11773.48047 0.000565
11774.42969 0.000581
11775.38965 0.000597
11776.33984 0.000612
11777.29980 0.000628
11778.25977 0.000643
11779.20996 0.000659
11780.16992 0.000675
11781.12012 0.00069
11782.08008 0.000706
11783.03027 0.000721
11783.99023 0.000753
11784.95020 0.000789
11785.90039 0.000824
11786.86035 0.00086
11787.80957 0.000896
11788.76953 0.000931
11789.73047 0.000967
11790.67969 0.001003
11791.63965 0.001038
11792.59961 0.001074
11793.54980 0.00111
11794.50977 0.001145
11795.46973 0.001181
11796.41992 0.001217
11797.37988 0.001252
11798.33984 0.001288
11799.29004 0.001324
11800.25000 0.00136
11801.20996 0.001395
11802.16992 0.001431
11803.12012 0.001467
11804.08008 0.001516
11805.04004 0.001567
11806.00000 0.001618
11806.95020 0.001669
11807.91016 0.001719
11808.87012 0.00177
11809.83008 0.001821
11810.79004 0.001872
11811.74023 0.001923
11812.70020 0.001974
11813.66016 0.002025
11814.62012 0.002076
11815.58008 0.002128
11816.54004 0.002179
11817.49023 0.00223
11818.45020 0.002281
11819.41016 0.002332
11820.37012 0.002383
11821.33008 0.002434
11822.29004 0.002485
11823.25000 0.002537
11824.20996 0.002621
11825.16992 0.002705
11826.12012 0.002788
11827.08008 0.002872
11828.04004 0.002956
11829.00000 0.00304
11829.95996 0.003124
11830.91992 0.003208
11831.87988 0.003292
11832.83984 0.003376
11833.79980 0.00346
11834.75977 0.003544
11835.71973 0.003627
11836.67969 0.003711
11837.63965 0.003795
11838.59961 0.003879
11839.55957 0.003963
11840.51953 0.004047
11841.48047 0.004132
11842.44043 0.004215
11843.41016 0.004305
11844.37012 0.00442
11845.33008 0.004536
11846.29004 0.004651
11847.25000 0.004767
11848.20996 0.004882
11849.16992 0.004997
11850.12988 0.005113
11851.08984 0.005229
11852.04980 0.005345
11853.01953 0.005461
11853.98047 0.005577
11854.94043 0.005693
11855.90039 0.005809
11856.86035 0.005925
11857.83008 0.006041
11858.79004 0.006158
11859.75000 0.006274
11860.70996 0.00639
11861.66992 0.006505
11862.63965 0.006621
11863.59961 0.006765
11864.55957 0.006958
11865.51953 0.007151
11866.49023 0.007344
11867.45020 0.007538
11868.41016 0.007731
11869.37012 0.007924
11870.33984 0.008117
11871.29980 0.00831
11872.25977 0.008504
11873.23047 0.008697
11874.19043 0.00889
11875.15039 0.009084
11876.12012 0.009277
11877.08008 0.00947
11878.04004 0.009664
11879.00977 0.009857
11879.96973 0.010051
11880.92969 0.010244
11881.90039 0.010438
11882.86035 0.010631
11883.82031 0.010902
11884.79004 0.011226
11885.75000 0.011549
11886.71973 0.011872
11887.67969 0.012196
11888.65039 0.012519
11889.61035 0.012843
11890.57031 0.013167
11891.54004 0.013492
11892.50000 0.013816
11893.46973 0.014141
11894.42969 0.014466
11895.40039 0.014792
11896.36035 0.015117
11897.33008 0.015442
11898.29004 0.015768
11899.25977 0.016093
11900.21973 0.016418
11901.19043 0.016743
11902.16016 0.017067
11903.12012 0.017391
11904.08984 0.017886
11905.04980 0.018409
11906.01953 0.018932
11906.98047 0.019455
11907.95020 0.019977
11908.91992 0.0205
11909.87988 0.021023
11910.84961 0.021547
11911.80957 0.02207
11912.78027 0.022594
11913.75000 0.023117
11914.70996 0.02364
11915.67969 0.024164
11916.65039 0.024688
11917.61035 0.025211
11918.58008 0.025735
11919.54980 0.026259
11920.50977 0.026783
11921.48047 0.027306
11922.45020 0.02783
11923.41992 0.028426
11924.37988 0.029402
11925.34961 0.030379
11926.32031 0.031355
11927.28027 0.032332
11928.25000 0.033308
11929.21973 0.034285
11930.19043 0.035262
11931.16016 0.03624
11932.12012 0.037217
11933.08984 0.038194
11934.05957 0.039171
11935.03027 0.040149
11936.00000 0.041127
11936.95996 0.042105
11937.92969 0.043082
11938.90039 0.044061
11939.87012 0.045039
11940.83984 0.04602
11941.80957 0.047003
11942.76953 0.047985
11943.74023 0.049335
11944.70996 0.051067
11945.67969 0.052797
11946.65039 0.054528
11947.62012 0.056261
11948.58984 0.057993
11949.55957 0.059727
11950.53027 0.061456
11951.50000 0.063185
11952.46973 0.064915
11953.44043 0.066644
11954.41016 0.068374
11955.37988 0.070103
11956.34961 0.071833
11957.32031 0.073563
11958.29004 0.075292
11959.25977 0.077024
11960.23047 0.078754
11961.20020 0.080486
11962.16992 0.082216
11963.13965 0.083948
11964.11035 0.086873
11965.08008 0.089994
11966.04980 0.093112
11967.01953 0.096233
11967.99023 0.099357
11968.95996 0.102479
11969.92969 0.105601
11970.90039 0.108722
11971.87012 0.111847
11972.83984 0.11497
11973.82031 0.118095
11974.79004 0.121217
11975.75977 0.124343
11976.73047 0.127469
11977.70020 0.130595
11978.66992 0.133721
11979.65039 0.136848
11980.62012 0.139981
11981.58984 0.14312
11982.55957 0.146262
11983.53027 0.150028
11984.50977 0.15557
11985.48047 0.161108
11986.45020 0.166652
11987.41992 0.172192
11988.38965 0.177739
11989.37012 0.183287
11990.33984 0.188831
11991.30957 0.194365
11992.29004 0.1999
11993.25977 0.205435
11994.23047 0.210976
11995.20020 0.216511
11996.17969 0.222047
11997.15039 0.227588
11998.12012 0.23313
11999.09961 0.238667
12000.07031 0.244209
12001.04004 0.249755
12002.01953 0.255301
12002.99023 0.260848
12003.95996 0.266814
12004.94043 0.27296
12005.91016 0.279108
12006.88965 0.285262
12007.86035 0.29141
12008.83008 0.297559
12009.80957 0.303714
12010.78027 0.30987
12011.75977 0.31602
12012.73047 0.322176
12013.70996 0.328333
12014.67969 0.334491
12015.66016 0.340649
12016.62988 0.346808
12017.59961 0.352967
12018.58008 0.359132
12019.54980 0.365292
12020.53027 0.371476
12021.50000 0.377668
12022.48047 0.383868
12023.45996 0.389805
12024.42969 0.394494
12025.41016 0.399184
12026.37988 0.403875
12027.36035 0.408567
12028.33008 0.413261
12029.30957 0.417955
12030.29004 0.422645
12031.25977 0.427307
12032.24023 0.431968
12033.20996 0.436635
12034.19043 0.441298
12035.16992 0.445965
12036.13965 0.450633
12037.12012 0.455301
12038.08984 0.45997
12039.07031 0.464638
12040.04980 0.469308
12041.01953 0.473977
12042.00000 0.478647
12042.98047 0.483317
12043.95996 0.486038
12044.92969 0.487818
12045.91016 0.4896
12046.88965 0.491381
12047.86035 0.493161
12048.83984 0.494944
12049.82031 0.496726
12050.79980 0.498508
12051.76953 0.50029
12052.75000 0.502073
12053.73047 0.503856
12054.70996 0.50564
12055.67969 0.507423
12056.66016 0.509206
12057.63965 0.510991
12058.62012 0.512776
12059.59961 0.51456
12060.58008 0.51637
12061.54980 0.518199
12062.53027 0.520027
12063.50977 0.521529
12064.49023 0.521837
12065.46973 0.522144
12066.45020 0.522452
12067.42969 0.52276
12068.40039 0.523068
12069.37988 0.523377
12070.36035 0.523669
12071.33984 0.523934
12072.32031 0.524199
12073.29980 0.524464
12074.28027 0.524729
12075.25977 0.524995
12076.24023 0.52526
12077.21973 0.525525
12078.20020 0.525791
12079.17969 0.526056
12080.16016 0.526321
12081.13965 0.526587
12082.12012 0.526853
12083.09961 0.527118
12084.08008 0.527093
12085.05957 0.52699
12086.04004 0.526887
12087.01953 0.526784
12088.00000 0.526681
12088.98047 0.526578
12089.95996 0.526475
12090.94043 0.526373
12091.91992 0.526269
12092.90039 0.526166
12093.87988 0.526063
12094.87012 0.52596
12095.84961 0.525857
12096.83008 0.525754
12097.80957 0.525651
12098.79004 0.525548
12099.76953 0.525444
12100.75000 0.525375
12101.74023 0.525315
12102.71973 0.525255
12103.70020 0.525208
12104.67969 0.525179
12105.66016 0.525151
12106.65039 0.525123
12107.62988 0.525094
12108.61035 0.525066
12109.58984 0.525037
12110.57031 0.524984
12111.55957 0.524911
12112.54004 0.52484
12113.51953 0.524768
12114.50000 0.524695
12115.49023 0.524624
12116.46973 0.524552
12117.45020 0.524479
12118.44043 0.524408
12119.41992 0.524335
12120.40039 0.524263
12121.38965 0.524191
12122.37012 0.524119
12123.34961 0.524051
12124.33984 0.524078
12125.32031 0.524106
12126.29980 0.524134
12127.29004 0.524162
12128.26953 0.524189
12129.25000 0.524217
12130.24023 0.524245
12131.21973 0.524273
12132.20996 0.524301
12133.19043 0.524328
12134.16992 0.524356
12135.16016 0.524384
12136.13965 0.524412
12137.12988 0.52444
12138.11035 0.524467
12139.09961 0.524495
12140.08008 0.524527
12141.07031 0.524598
12142.04980 0.52467
12143.04004 0.524741
12144.01953 0.524848
12145.00977 0.524969
12145.99023 0.525091
12146.98047 0.525212
12147.95996 0.525334
12148.95020 0.525455
12149.92969 0.525577
12150.91992 0.525658
12151.91016 0.525736
12152.88965 0.525814
12153.87988 0.525892
12154.86035 0.52597
12155.84961 0.526049
12156.83008 0.526127
12157.82031 0.526205
12158.80957 0.526283
12159.79004 0.526361
12160.78027 0.526439
12161.76953 0.526517
12162.75000 0.526596
12163.74023 0.526662
12164.73047 0.52671
12165.70996 0.52676
12166.70020 0.526809
12167.69043 0.526858
12168.66992 0.526907
12169.66016 0.526956
12170.65039 0.527005
12171.63965 0.527055
12172.62012 0.527104
12173.61035 0.527153
12174.59961 0.527202
12175.58984 0.527251
12176.57031 0.527301
12177.55957 0.52735
12178.54980 0.527399
12179.54004 0.527448
12180.53027 0.527521
12181.50977 0.527614
12182.50000 0.527707
12183.49023 0.527816
12184.48047 0.52801
12185.46973 0.528204
12186.45996 0.528398
12187.44043 0.528592
12188.42969 0.528786
12189.41992 0.528981
12190.41016 0.529157
12191.40039 0.529307
12192.38965 0.529457
12193.37988 0.529607
12194.37012 0.529758
12195.36035 0.529908
12196.34961 0.530058
12197.33008 0.530209
12198.32031 0.530359
12199.30957 0.530509
12200.29980 0.530659
12201.29004 0.530804
12202.28027 0.53095
12203.26953 0.531096
12204.25977 0.531209
12205.25000 0.53132
12206.24023 0.531431
12207.23047 0.531543
12208.21973 0.531654
12209.20996 0.531765
12210.20020 0.531885
12211.19043 0.532041
12212.19043 0.532196
12213.17969 0.532352
12214.16992 0.532508
12215.16016 0.532663
12216.15039 0.532819
12217.13965 0.532975
12218.12988 0.533131
12219.12012 0.533287
12220.11035 0.533438
12221.09961 0.533549
12222.09961 0.53366
12223.08984 0.533772
12224.08008 0.533866
12225.07031 0.533953
12226.05957 0.534041
12227.04980 0.534128
12228.04980 0.534216
12229.04004 0.534304
12230.03027 0.534391
12231.01953 0.534479
12232.00977 0.534566
12233.00977 0.534654
12234.00000 0.534742
12234.99023 0.534829
12235.98047 0.534917
12236.98047 0.535005
12237.96973 0.535092
12238.95996 0.53518
12239.95996 0.535268
12240.95020 0.535356
12241.94043 0.535443
12242.92969 0.535531
12243.92969 0.535578
12244.91992 0.535597
12245.91016 0.535615
12246.91016 0.535633
12247.90039 0.535652
12248.88965 0.53567
12249.88965 0.535688
12250.87988 0.535746
12251.87988 0.535809
12252.87012 0.535872
12253.86035 0.535935
12254.86035 0.535998
12255.84961 0.536061
12256.84961 0.536125
12257.83984 0.536188
12258.83008 0.536251
12259.83008 0.536314
12260.82031 0.53634
12261.82031 0.536358
12262.80957 0.536377
12263.80957 0.536374
12264.79980 0.536347
12265.79980 0.53632
12266.79004 0.536292
12267.79004 0.536265
12268.78027 0.536238
12269.78027 0.536211
12270.76953 0.536184
12271.76953 0.536156
12272.75977 0.536129
12273.75977 0.536102
12274.75977 0.536074
12275.75000 0.536047
12276.75000 0.53602
12277.74023 0.535992
12278.74023 0.535965
12279.74023 0.535938
12280.73047 0.53591
12281.73047 0.535883
12282.71973 0.535856
12283.71973 0.535803
12284.71973 0.535706
12285.70996 0.535609
12286.70996 0.535512
12287.70996 0.535414
12288.70020 0.535317
12289.70020 0.53522
12290.70020 0.535154
12291.69043 0.535101
12292.69043 0.535049
12293.69043 0.534996
12294.69043 0.534944
12295.67969 0.534891
12296.67969 0.534839
12297.67969 0.534786
12298.67969 0.534733
12299.66992 0.534681
12300.66992 0.534598
12301.66992 0.5345
12302.66992 0.534403
12303.66992 0.5343
12304.66016 0.534187
12305.66016 0.534073
12306.66016 0.533959
12307.66016 0.533845
12308.66016 0.533732
12309.66016 0.533618
12310.65039 0.533504
12311.65039 0.53339
12312.65039 0.533276
12313.65039 0.533162
12314.65039 0.533048
12315.65039 0.532934
12316.65039 0.532821
12317.65039 0.532707
12318.65039 0.532593
12319.63965 0.532479
12320.63965 0.532365
12321.63965 0.532251
12322.63965 0.532137
12323.63965 0.532039
12324.63965 0.531988
12325.63965 0.531936
12326.63965 0.531884
12327.63965 0.531832
12328.63965 0.53178
12329.63965 0.531728
12330.63965 0.531705
12331.63965 0.531697
12332.63965 0.53169
12333.63965 0.531682
12334.63965 0.531675
12335.63965 0.531667
12336.65039 0.53166
12337.65039 0.531653
12338.65039 0.531645
12339.65039 0.531637
12340.65039 0.531601
12341.65039 0.531549
12342.65039 0.531497
12343.65039 0.531449
12344.65039 0.53141
12345.66016 0.531371
12346.66016 0.531333
12347.66016 0.531294
12348.66016 0.531256
12349.66016 0.531217
12350.66016 0.531178
12351.66992 0.53114
12352.66992 0.531101
12353.66992 0.531062
12354.66992 0.531024
12355.66992 0.530985
12356.67969 0.530946
12357.67969 0.530908
12358.67969 0.530869
12359.67969 0.53083
12360.69043 0.530792
12361.69043 0.530753
12362.69043 0.530714
12363.70020 0.530696
12364.70020 0.530723
12365.70020 0.530749
12366.70020 0.530775
12367.70996 0.530802
12368.70996 0.530829
12369.70996 0.530855
12370.71973 0.530913
12371.71973 0.530985
12372.71973 0.531056
12373.73047 0.531127
12374.73047 0.531198
12375.74023 0.531269
12376.74023 0.53134
12377.74023 0.531412
12378.75000 0.531483
12379.75000 0.531554
12380.75977 0.531592
12381.75977 0.531618
12382.76953 0.531645
12383.76953 0.531687
12384.76953 0.531754
12385.78027 0.531822
12386.78027 0.531889
12387.79004 0.531957
12388.79004 0.532024
12389.79980 0.532091
12390.79980 0.532159
12391.80957 0.532226
12392.80957 0.532294
12393.82031 0.532361
12394.83008 0.532429
12395.83008 0.532496
12396.83984 0.532564
12397.83984 0.532631
12398.84961 0.532699
12399.84961 0.532766
12400.86035 0.532839
12401.87012 0.532913
12402.87012 0.532987
12403.87988 0.53304
12404.87988 0.533071
12405.88965 0.533101
12406.90039 0.533131
12407.90039 0.533162
12408.91016 0.533192
12409.91992 0.533222
12410.91992 0.533294
12411.92969 0.533369
12412.94043 0.533445
12413.94043 0.53352
12414.95020 0.533595
12415.95996 0.533671
12416.95996 0.533746
12417.96973 0.533821
12418.98047 0.533897
12419.99023 0.533972
12421.00000 0.534003
12422.00000 0.534034
12423.00977 0.534064
12424.01953 0.534103
12425.03027 0.534147
12426.03027 0.534191
12427.04004 0.534235
12428.04980 0.53428
12429.05957 0.534324
12430.07031 0.534368
12431.08008 0.534412
12432.08008 0.534456
12433.08984 0.5345
12434.09961 0.534545
12435.11035 0.534589
12436.12012 0.534633
12437.12988 0.534677
12438.13965 0.534721
12439.13965 0.534766
12440.15039 0.53481
12441.16016 0.534854
12442.16992 0.534898
12443.17969 0.534942
12444.19043 0.534944
12445.20020 0.534933
12446.20996 0.534923
12447.21973 0.534912
12448.23047 0.534901
12449.24023 0.534891
12450.25000 0.534891
12451.25977 0.534926
12452.26953 0.53496
12453.28027 0.534995
12454.29004 0.535029
12455.29980 0.535064
12456.30957 0.535098
12457.32031 0.535133
12458.33008 0.535167
12459.33984 0.535202
12460.34961 0.53522
12461.36035 0.53521
12462.37012 0.535199
12463.38965 0.535188
12464.40039 0.535191
12465.41016 0.535194
12466.41992 0.535197
12467.42969 0.5352
12468.44043 0.535203
12469.45020 0.535206
12470.45996 0.535209
12471.48047 0.535212
12472.49023 0.535215
12473.50000 0.535218
12474.50977 0.535221
12475.51953 0.535224
12476.54004 0.535227
12477.54980 0.53523
12478.55957 0.535233
12479.57031 0.535237
12480.58008 0.535239
12481.59961 0.535243
12482.61035 0.535246
12483.62012 0.535237
12484.62988 0.535185
12485.65039 0.535133
12486.66016 0.535081
12487.66992 0.535028
12488.69043 0.534976
12489.70020 0.534924
12490.70996 0.534903
12491.73047 0.534897
12492.74023 0.53489
12493.75000 0.534883
12494.76953 0.534876
12495.78027 0.534869
12496.79004 0.534861
12497.80957 0.534855
12498.82031 0.534847
12499.83008 0.534841
12500.84961 0.534785
12501.86035 0.534721
12502.87988 0.534656
12503.88965 0.534577
12504.91016 0.534482
12505.91992 0.534387
12506.94043 0.534292
12507.95020 0.534196
12508.95996 0.534101
12509.98047 0.534006
12510.99023 0.533911
12512.00977 0.533816
12513.01953 0.533721
12514.04004 0.533625
12515.04980 0.53353
12516.07031 0.533435
12517.08008 0.53334
12518.09961 0.533244
12519.12012 0.533149
12520.12988 0.533054
12521.15039 0.532958
12522.16016 0.532863
12523.17969 0.532768
12524.19043 0.532693
12525.20996 0.532626
12526.23047 0.532558
12527.24023 0.532491
12528.25977 0.532423
12529.28027 0.532355
12530.29004 0.532301
12531.30957 0.532278
12532.33008 0.532256
12533.33984 0.532233
12534.36035 0.532211
12535.37012 0.532188
12536.38965 0.532165
12537.41016 0.532143
12538.42969 0.53212
12539.44043 0.532098
12540.45996 0.532055
12541.48047 0.531987
12542.50000 0.531919
12543.50977 0.531852
12544.53027 0.531795
12545.54980 0.531739
12546.57031 0.531682
12547.58008 0.531625
12548.59961 0.531569
12549.62012 0.531512
12550.63965 0.531455
12551.66016 0.531398
12552.66992 0.531342
12553.69043 0.531285
12554.70996 0.531228
12555.73047 0.531171
12556.75000 0.531115
12557.76953 0.531058
12558.78027 0.531001
12559.79980 0.530944
12560.82031 0.530924
12561.83984 0.530912
12562.86035 0.5309
12563.87988 0.530909
12564.90039 0.530945
12565.91992 0.530981
12566.94043 0.531017
12567.95996 0.531052
12568.98047 0.531088
12570.00000 0.531124
12571.01953 0.531114
12572.04004 0.531105
12573.05957 0.531095
12574.08008 0.531086
12575.09961 0.531076
12576.12012 0.531067
12577.13965 0.531057
12578.16016 0.531048
12579.17969 0.531039
12580.20020 0.531029
12581.21973 0.531019
12582.24023 0.53101
12583.25977 0.531001
12584.28027 0.531076
12585.29980 0.53117
12586.32031 0.531264
12587.33984 0.531358
12588.36035 0.531452
12589.37988 0.531546
12590.41016 0.53164
12591.42969 0.531734
12592.45020 0.531828
12593.46973 0.531922
12594.49023 0.532016
12595.50977 0.532111
12596.54004 0.532204
12597.55957 0.532299
12598.58008 0.532393
12599.59961 0.532487
12600.62012 0.532607
12601.65039 0.532744
12602.66992 0.532882
12603.69043 0.533017
12604.70996 0.533146
12605.74023 0.533275
12606.75977 0.533404
12607.78027 0.533533
12608.79980 0.533662
12609.83008 0.533791
12610.84961 0.533883
12611.87012 0.533966
12612.90039 0.53405
12613.91992 0.534133
12614.94043 0.534217
12615.95996 0.534301
12616.99023 0.534384
12618.00977 0.534468
12619.04004 0.534552
12620.05957 0.534635
12621.08008 0.534719
12622.11035 0.534803
12623.12988 0.534886
12624.15039 0.534997
12625.17969 0.53512
12626.20020 0.535243
12627.23047 0.535366
12628.25000 0.535489
12629.28027 0.535613
12630.29980 0.535736
12631.33008 0.535859
12632.34961 0.535982
12633.37012 0.536105
12634.40039 0.536228
12635.41992 0.536351
12636.45020 0.536474
12637.46973 0.536598
12638.50000 0.536721
12639.53027 0.536844
12640.54980 0.536992
12641.58008 0.537161
12642.59961 0.53733
12643.62988 0.537504
12644.65039 0.537698
12645.67969 0.537893
12646.70020 0.538088
12647.73047 0.538282
12648.75977 0.538477
12649.78027 0.538672
12650.80957 0.538831
12651.83008 0.53898
12652.86035 0.539128
12653.88965 0.539277
12654.91016 0.539426
12655.94043 0.539575
12656.96973 0.539724
12657.99023 0.539873
12659.01953 0.540022
12660.04980 0.540171
12661.08008 0.54032
12662.09961 0.540469
12663.12988 0.540618
12664.16016 0.540746
12665.17969 0.540864
12666.20996 0.540982
12667.24023 0.5411
12668.26953 0.541219
12669.29004 0.541336
12670.32031 0.541454
12671.34961 0.541573
12672.37988 0.541691
12673.41016 0.541809
12674.42969 0.541927
12675.45996 0.542045
12676.49023 0.542163
12677.51953 0.542281
12678.54980 0.5424
12679.58008 0.542518
12680.59961 0.542663
12681.62988 0.542828
12682.66016 0.542993
12683.69043 0.543152
12684.71973 0.543291
12685.75000 0.543431
12686.78027 0.54357
12687.80957 0.54371
12688.83984 0.543849
12689.87012 0.543989
12690.88965 0.544088
12691.91992 0.544181
12692.95020 0.544274
12693.98047 0.544367
12695.00977 0.54446
12696.04004 0.544553
12697.07031 0.544646
12698.09961 0.544739
12699.12988 0.544832
12700.16016 0.544925
12701.19043 0.545018
12702.21973 0.545111
12703.25000 0.545204
12704.29004 0.545237
12705.32031 0.545253
12706.34961 0.54527
12707.37988 0.545286
12708.41016 0.545303
12709.44043 0.545319
12710.46973 0.545336
12711.50000 0.545353
12712.53027 0.545369
12713.55957 0.545385
12714.58984 0.545402
12715.62988 0.545419
12716.66016 0.545435
12717.69043 0.545452
12718.71973 0.545468
12719.75000 0.545485
12720.78027 0.545537
12721.82031 0.5456
12722.84961 0.545664
12723.87988 0.545721
12724.91016 0.545771
12725.95020 0.54582
12726.98047 0.545869
12728.00977 0.545918
12729.04004 0.545968
12730.08008 0.546014
12731.11035 0.546016
12732.13965 0.546018
12733.16992 0.54602
12734.20996 0.546023
12735.24023 0.546025
12736.26953 0.546027
12737.30957 0.54603
12738.33984 0.546032
12739.37012 0.546034
12740.41016 0.546037
12741.44043 0.546039
12742.46973 0.546042
12743.50977 0.546042
12744.54004 0.545939
12745.57031 0.545836
12746.61035 0.545733
12747.63965 0.54563
12748.67969 0.545527
12749.70996 0.545423
12750.75000 0.54532
12751.78027 0.545217
12752.80957 0.545114
12753.84961 0.545011
12754.87988 0.544908
12755.91992 0.544805
12756.95020 0.544701
12757.99023 0.544598
12759.01953 0.544495
12760.05957 0.544392
12761.08984 0.544289
12762.12988 0.544185
12763.16016 0.544082
12764.20020 0.543989
12765.23047 0.5439
12766.26953 0.54381
12767.29980 0.543722
12768.33984 0.543632
12769.37988 0.543543
12770.41016 0.543473
12771.45020 0.543431
12772.48047 0.543389
12773.51953 0.543346
12774.55957 0.543304
12775.58984 0.543262
12776.62988 0.543219
12777.66992 0.543177
12778.70020 0.543134
12779.74023 0.543092
12780.78027 0.543014
12781.80957 0.542925
12782.84961 0.542836
12783.88965 0.542756
12784.91992 0.542693
12785.95996 0.542629
12787.00000 0.542566
12788.04004 0.542502
12789.07031 0.542439
12790.11035 0.542375
12791.15039 0.542311
12792.19043 0.542248
12793.21973 0.542184
12794.25977 0.542121
12795.29980 0.542057
12796.33984 0.541994
12797.37012 0.54193
12798.41016 0.541866
12799.45020 0.541803
12800.49023 0.541735
12801.53027 0.541662
12802.57031 0.541589
12803.59961 0.541522
12804.63965 0.541512
12805.67969 0.541502
12806.71973 0.541492
12807.75977 0.541482
12808.79980 0.541473
12809.83984 0.541463
12810.87988 0.541492
12811.91992 0.541529
12812.95996 0.541566
12814.00000 0.541603
12815.04004 0.54164
12816.07031 0.541676
12817.11035 0.541713
12818.15039 0.54175
12819.19043 0.541787
12820.23047 0.541813
12821.26953 0.541803
12822.30957 0.541793
12823.34961 0.541783
12824.38965 0.541771
12825.42969 0.541758
12826.46973 0.541745
12827.51953 0.541732
12828.55957 0.54172
12829.59961 0.541707
12830.63965 0.541694
12831.67969 0.541681
12832.71973 0.541668
12833.75977 0.541655
12834.79980 0.541643
12835.83984 0.54163
12836.87988 0.541617
12837.91992 0.541604
12838.96973 0.541592
12840.00977 0.541579
12841.04980 0.541566
12842.08984 0.541553
12843.12988 0.54154
12844.16992 0.541582
12845.21973 0.541656
12846.25977 0.541729
12847.29980 0.541803
12848.33984 0.541876
12849.38965 0.54195
12850.42969 0.542042
12851.46973 0.542163
12852.50977 0.542283
12853.55957 0.542404
12854.59961 0.542524
12855.63965 0.542645
12856.67969 0.542765
12857.73047 0.542886
12858.76953 0.543006
12859.80957 0.543127
12860.86035 0.543209
12861.90039 0.543283
12862.94043 0.543356
12863.99023 0.543438
12865.03027 0.543529
12866.07031 0.54362
12867.12012 0.54371
12868.16016 0.543802
12869.20996 0.543892
12870.25000 0.543983
12871.29004 0.544074
12872.33984 0.544165
12873.37988 0.544256
12874.42969 0.544347
12875.46973 0.544438
12876.50977 0.544529
12877.55957 0.54462
12878.59961 0.544712
12879.65039 0.544802
12880.69043 0.544893
12881.74023 0.544984
12882.78027 0.545076
12883.83008 0.545167
12884.87012 0.545258
12885.91992 0.545349
12886.95996 0.54544
12888.00977 0.545531
12889.05957 0.545622
12890.09961 0.545718
12891.15039 0.545856
12892.19043 0.545995
12893.24023 0.546133
12894.28027 0.546272
12895.33008 0.54641
12896.37988 0.546549
12897.41992 0.546687
12898.46973 0.546826
12899.51953 0.546965
12900.55957 0.547078
12901.61035 0.547169
12902.65039 0.54726
12903.70020 0.547348
12904.75000 0.547416
12905.79004 0.547484
12906.83984 0.547552
12907.88965 0.54762
12908.94043 0.547688
12909.98047 0.547756
12911.03027 0.547825
12912.08008 0.547893
12913.12988 0.547961
12914.16992 0.548029
12915.21973 0.548097
12916.26953 0.548165
12917.32031 0.548234
12918.36035 0.548302
12919.41016 0.54837
12920.45996 0.548438
12921.50977 0.548506
12922.55957 0.548574
12923.59961 0.548638
12924.65039 0.548643
12925.70020 0.548647
12926.75000 0.548651
12927.79980 0.548656
12928.84961 0.54866
12929.90039 0.548665
12930.95020 0.548712
12931.99023 0.548764
12933.04004 0.548816
12934.08984 0.548868
12935.13965 0.548921
12936.19043 0.548973
12937.24023 0.549025
12938.29004 0.549077
12939.33984 0.549129
12940.38965 0.549164
12941.44043 0.549168
12942.49023 0.549172
12943.54004 0.549177
12944.58984 0.549184
12945.63965 0.549191
12946.69043 0.549199
12947.74023 0.549206
12948.79004 0.549213
12949.83984 0.549221
12950.88965 0.549228
12951.94043 0.549235
12952.99023 0.549243
12954.04004 0.54925
12955.08984 0.549257
12956.13965 0.549265
12957.20020 0.549272
12958.25000 0.549279
12959.29980 0.549287
12960.34961 0.549294
12961.40039 0.549301
12962.45020 0.549309
12963.50000 0.549316
12964.55957 0.549242
12965.61035 0.549165
12966.66016 0.549088
12967.70996 0.549011
12968.75977 0.548934
12969.80957 0.548857
12970.87012 0.548779
12971.91992 0.548702
12972.96973 0.548625
12974.01953 0.548548
12975.08008 0.548471
12976.12988 0.548394
12977.17969 0.548317
12978.23047 0.54824
12979.29004 0.548162
12980.33984 0.548101
12981.38965 0.548071
12982.45020 0.548042
12983.50000 0.548013
12984.54980 0.548005
12985.61035 0.547999
12986.66016 0.547993
12987.70996 0.547987
12988.76953 0.547981
12989.82031 0.547975
12990.87012 0.547929
12991.92969 0.547875
12992.98047 0.547821
12994.04004 0.547767
12995.08984 0.547713
12996.13965 0.547659
12997.20020 0.547605
12998.25000 0.547551
12999.30957 0.547497
13000.36035 0.54745
13001.41992 0.547415
13002.46973 0.547381
13003.53027 0.547347
13004.58008 0.547227
13005.63965 0.547105
13006.69043 0.546983
13007.75000 0.546861
13008.79980 0.546739
13009.86035 0.546617
13010.91016 0.546495
13011.96973 0.546373
13013.01953 0.54625
13014.08008 0.546128
13015.12988 0.546006
13016.19043 0.545884
13017.25000 0.545762
13018.29980 0.54564
13019.36035 0.545517
13020.41016 0.545413
13021.46973 0.545339
13022.53027 0.545264
13023.58008 0.545192
13024.63965 0.545222
13025.70020 0.545253
13026.75000 0.545284
13027.80957 0.545314
13028.87012 0.545345
13029.91992 0.545376
13030.98047 0.545362
13032.04004 0.545345
13033.08984 0.545328
13034.15039 0.545311
13035.20996 0.545294
13036.26953 0.545277
13037.32031 0.54526
13038.37988 0.545243
13039.44043 0.545226
13040.50000 0.545209
13041.55957 0.545192
13042.61035 0.545175
13043.66992 0.545157
13044.73047 0.545125
13045.79004 0.545093
13046.84961 0.545061
13047.90039 0.54503
13048.95996 0.544998
13050.01953 0.544966
13051.08008 0.544935
13052.13965 0.544903
13053.20020 0.544871
13054.25977 0.544839
13055.32031 0.544808
13056.37988 0.544776
13057.42969 0.544744
13058.49023 0.544712
13059.54980 0.544681
13060.61035 0.544649
13061.66992 0.544617
13062.73047 0.544585
13063.79004 0.544567
13064.84961 0.544603
13065.91016 0.544639
13066.96973 0.544675
13068.03027 0.544711
13069.08984 0.544747
13070.15039 0.544789
13071.20996 0.544873
13072.26953 0.544957
13073.33008 0.545041
13074.38965 0.545124
13075.45020 0.545208
13076.50977 0.545292
13077.57031 0.545375
13078.62988 0.545459
13079.70020 0.545543
13080.75977 0.545593
13081.82031 0.545628
13082.87988 0.545665
13083.94043 0.54569
13085.00000 0.545697
13086.05957 0.545704
13087.12012 0.54571
13088.19043 0.545717
13089.25000 0.545723
13090.30957 0.545729
13091.37012 0.545736
13092.42969 0.545742
13093.50000 0.545749
13094.55957 0.545755
13095.62012 0.545762
13096.67969 0.545768
13097.75000 0.545775
13098.80957 0.545781
13099.87012 0.545788
13100.92969 0.545794
13102.00000 0.545801
13103.05957 0.545807
13104.12012 0.545854
13105.19043 0.545941
13106.25000 0.546027
13107.30957 0.546113
13108.37988 0.5462
13109.44043 0.546286
13110.50000 0.546373
13111.57031 0.546459
13112.62988 0.546545
13113.69043 0.546632
13114.75977 0.546718
13115.82031 0.546805
13116.87988 0.546892
13117.95020 0.546978
13119.00977 0.547064
13120.08008 0.547155
13121.13965 0.547289
13122.20996 0.547424
13123.26953 0.547559
13124.33008 0.547666
13125.40039 0.547763
13126.45996 0.547859
13127.53027 0.547955
13128.58984 0.548051
13129.66016 0.548148
13130.71973 0.548211
13131.79004 0.548259
13132.84961 0.548307
13133.91992 0.548355
13134.99023 0.548404
13136.04980 0.548452
13137.12012 0.5485
13138.17969 0.548548
13139.25000 0.548596
13140.30957 0.548645
13141.37988 0.548693
13142.45020 0.548741
13143.50977 0.548789
13144.58008 0.548807
13145.63965 0.548822
13146.70996 0.548838
13147.78027 0.548854
13148.83984 0.548869
13149.91016 0.548885
13150.98047 0.5489
13152.04004 0.548916
13153.11035 0.548931
13154.17969 0.548947
13155.25000 0.548962
13156.30957 0.548978
13157.37988 0.548993
13158.45020 0.549009
13159.50977 0.549024
13160.58008 0.549066
13161.65039 0.54913
13162.71973 0.549194
13163.79004 0.549261
13164.84961 0.549343
13165.91992 0.549425
13166.99023 0.549506
13168.05957 0.549588
13169.12988 0.54967
13170.19043 0.549743
13171.25977 0.549777
13172.33008 0.54981
13173.40039 0.549844
13174.46973 0.549877
13175.54004 0.549911
13176.61035 0.549944
13177.66992 0.549978
13178.74023 0.550011
13179.80957 0.550045
13180.87988 0.550078
13181.95020 0.550112
13183.01953 0.550145
13184.08984 0.550173
13185.16016 0.550195
13186.23047 0.550216
13187.29980 0.550238
13188.37012 0.550259
13189.44043 0.550281
13190.50977 0.550303
13191.58008 0.550324
13192.65039 0.550346
13193.71973 0.550367
13194.79004 0.550389
13195.86035 0.55041
13196.92969 0.550432
13198.00000 0.550454
13199.07031 0.550475
13200.13965 0.550495
13201.20996 0.550504
13202.28027 0.550514
13203.34961 0.550523
13204.42969 0.550548
13205.50000 0.550579
13206.57031 0.550609
13207.63965 0.550639
13208.70996 0.55067
13209.78027 0.5507
13210.84961 0.550769
13211.92969 0.550848
13213.00000 0.550927
13214.07031 0.551006
13215.13965 0.551085
13216.20996 0.551164
13217.29004 0.551243
13218.36035 0.551322
13219.42969 0.551401
13220.50000 0.551457
13221.58008 0.551488
13222.65039 0.551518
13223.71973 0.551547
13224.79004 0.551559
13225.87012 0.551571
13226.94043 0.551584
13228.00977 0.551596
13229.08008 0.551608
13230.16016 0.551621
13231.23047 0.551633
13232.29980 0.551645
13233.37988 0.551658
13234.45020 0.55167
13235.53027 0.551682
13236.59961 0.551695
13237.66992 0.551707
13238.75000 0.551719
13239.82031 0.551732
13240.88965 0.551744
13241.96973 0.551757
13243.04004 0.551769
13244.12012 0.551794
13245.19043 0.551833
13246.26953 0.551873
13247.33984 0.551912
13248.41992 0.551952
13249.49023 0.551991
13250.57031 0.55203
13251.63965 0.55207
13252.70996 0.552109
13253.79004 0.552149
13254.87012 0.552188
13255.94043 0.552228
13257.01953 0.552268
13258.08984 0.552307
13259.16992 0.552346
13260.24023 0.552386
13261.32031 0.552425
13262.38965 0.552465
13263.46973 0.552504
13264.54980 0.552575
13265.62012 0.552651
13266.70020 0.552726
13267.76953 0.552802
13268.84961 0.552878
13269.92969 0.552953
13271.00000 0.553075
13272.08008 0.5532
13273.16016 0.553324
13274.23047 0.553449
13275.30957 0.553574
13276.38965 0.553699
13277.45996 0.553824
13278.54004 0.553949
13279.62012 0.554074
13280.70020 0.554167
13281.76953 0.554243
13282.84961 0.554319
13283.92969 0.554384
13285.00977 0.55442
13286.08008 0.554457
13287.16016 0.554494
13288.24023 0.55453
13289.32031 0.554567
13290.40039 0.554604
13291.46973 0.55464
13292.54980 0.554677
13293.62988 0.554713
13294.70996 0.55475
13295.79004 0.554787
13296.87012 0.554824
13297.94043 0.55486
13299.01953 0.554897
13300.09961 0.554933
13301.17969 0.55497
13302.25977 0.555007
13303.33984 0.555043
13304.41992 0.555043
13305.50000 0.555028
13306.58008 0.555013
13307.66016 0.554998
13308.74023 0.554984
13309.82031 0.554969
13310.88965 0.554954
13311.96973 0.55494
13313.04980 0.554925
13314.12988 0.55491
13315.20996 0.554895
13316.29004 0.55488
13317.37012 0.554866
13318.45996 0.554851
13319.54004 0.554836
13320.62012 0.554849
13321.70020 0.554884
13322.78027 0.554918
13323.86035 0.554958
13324.94043 0.555017
13326.01953 0.555076
13327.09961 0.555134
13328.17969 0.555193
13329.25977 0.555252
13330.33984 0.555295
13331.42969 0.555305
13332.50977 0.555314
13333.58984 0.555323
13334.66992 0.555333
13335.75000 0.555342
13336.83008 0.555352
13337.91992 0.555361
13339.00000 0.555371
13340.08008 0.55538
13341.16016 0.55539
13342.25000 0.555399
13343.33008 0.555409
13344.41016 0.555384
13345.49023 0.555345
13346.58008 0.555306
13347.66016 0.555267
13348.74023 0.555227
13349.82031 0.555188
13350.91016 0.555149
13351.99023 0.55511
13353.07031 0.555071
13354.16016 0.555032
13355.24023 0.554992
13356.32031 0.554953
13357.41016 0.554914
13358.49023 0.554875
13359.57031 0.554836
13360.66016 0.554796
13361.74023 0.554757
13362.83008 0.554718
13363.91016 0.554679
13364.99023 0.554643
13366.08008 0.554607
13367.16016 0.554571
13368.25000 0.554535
13369.33008 0.554498
13370.41992 0.554462
13371.50000 0.554426
13372.58008 0.55439
13373.66992 0.554354
13374.75000 0.554317
13375.83984 0.554281
13376.91992 0.554245
13378.00977 0.554209
13379.08984 0.554173
13380.17969 0.554145
13381.26953 0.554158
13382.34961 0.554171
13383.44043 0.554184
13384.51953 0.554137
13385.61035 0.554074
13386.69043 0.554011
13387.78027 0.553947
13388.87012 0.553884
13389.95020 0.553821
13391.04004 0.553711
13392.12012 0.553598
13393.20996 0.553485
13394.29980 0.553372
13395.37988 0.55326
13396.46973 0.553147
13397.55957 0.553034
13398.63965 0.552922
13399.73047 0.552809
13400.82031 0.552671
13401.91016 0.552526
13402.99023 0.552381
13404.08008 0.552246
13405.16992 0.552128
13406.25000 0.55201
13407.33984 0.551892
13408.42969 0.551774
13409.51953 0.551656
13410.61035 0.551539
13411.69043 0.551421
13412.78027 0.551303
13413.87012 0.551185
13414.95996 0.551067
13416.04980 0.550949
13417.12988 0.550831
13418.21973 0.550713
13419.30957 0.550595
13420.40039 0.550477
13421.49023 0.550359
13422.58008 0.550242
13423.66992 0.550124
13424.75000 0.550009
13425.83984 0.549894
13426.92969 0.549779
13428.01953 0.549664
13429.11035 0.549549
13430.20020 0.549434
13431.29004 0.54932
13432.37988 0.549205
13433.46973 0.54909
13434.55957 0.548975
13435.65039 0.54886
13436.74023 0.548745
13437.83008 0.54863
13438.91992 0.548515
13440.00977 0.548401
13441.09961 0.548335
13442.19043 0.548269
13443.28027 0.548204
13444.37012 0.54813
13445.45996 0.548052
13446.54980 0.547974
13447.63965 0.547896
13448.73047 0.547818
13449.83008 0.54774
13450.91992 0.54762
13452.00977 0.547493
13453.09961 0.547366
13454.19043 0.547239
13455.28027 0.547111
13456.37012 0.546984
13457.45996 0.546857
13458.55957 0.54673
13459.65039 0.546602
13460.74023 0.546475
13461.83008 0.546348
13462.91992 0.546221
13464.01953 0.54614
13465.11035 0.546163
13466.20020 0.546186
13467.29004 0.546208
13468.38965 0.546231
13469.48047 0.546254
13470.57031 0.546277
13471.66016 0.5463
13472.75977 0.546323
13473.84961 0.546346
13474.94043 0.546369
13476.04004 0.546392
13477.12988 0.546415
13478.21973 0.546438
13479.32031 0.546461
13480.41016 0.546484
13481.50000 0.546507
13482.59961 0.546529
13483.69043 0.546552
13484.78027 0.54652
13485.87988 0.546487
13486.96973 0.546455
13488.07031 0.546423
13489.16016 0.546391
13490.25000 0.546358
13491.34961 0.546326
13492.44043 0.546293
13493.54004 0.546261
13494.62988 0.546229
13495.73047 0.546196
13496.82031 0.546164
13497.91992 0.546132
13499.00977 0.546099
13500.11035 0.546071
13501.20020 0.54608
13502.29980 0.546089
13503.38965 0.546098
13504.49023 0.546156
13505.58008 0.546232
13506.67969 0.546309
13507.78027 0.546385
13508.87012 0.546462
13509.96973 0.546538
13511.05957 0.546567
13512.16016 0.546594
13513.25000 0.546621
13514.34961 0.546648
13515.45020 0.546676
13516.54004 0.546703
13517.63965 0.54673
13518.74023 0.546758
13519.83008 0.546785
13520.92969 0.546812
13522.03027 0.546839
13523.12012 0.546867
13524.21973 0.54691
13525.32031 0.546971
13526.41992 0.547032
13527.50977 0.547093
13528.61035 0.547154
13529.70996 0.547215
13530.79980 0.547276
13531.90039 0.547337
13533.00000 0.547398
13534.09961 0.547459
13535.20020 0.54752
13536.29004 0.547581
13537.38965 0.547642
13538.49023 0.547703
13539.58984 0.547764
13540.69043 0.547825
13541.79004 0.547886
13542.87988 0.547947
13543.98047 0.548022
13545.08008 0.548138
13546.17969 0.548254
13547.28027 0.54837
13548.37988 0.548487
13549.48047 0.548603
13550.58008 0.548719
13551.67969 0.548835
13552.78027 0.548951
13553.87012 0.549068
13554.96973 0.549184
13556.07031 0.5493
13557.16992 0.549416
13558.26953 0.549532
13559.37012 0.549648
13560.46973 0.549764
13561.57031 0.54988
13562.66992 0.549996
13563.76953 0.550106
13564.87012 0.550111
13565.96973 0.550117
13567.08008 0.550122
13568.17969 0.550127
13569.28027 0.550133
13570.37988 0.550156
13571.48047 0.550211
13572.58008 0.550266
13573.67969 0.55032
13574.78027 0.550376
13575.87988 0.550431
13576.98047 0.550486
13578.08008 0.550541
13579.19043 0.550596
13580.29004 0.550638
13581.38965 0.550643
13582.49023 0.550649
13583.58984 0.550654
13584.70020 0.550561
13585.79980 0.550455
13586.90039 0.55035
13588.00000 0.550245
13589.09961 0.550139
13590.20996 0.550034
13591.30957 0.549928
13592.41016 0.549823
13593.50977 0.549717
13594.62012 0.549612
13595.71973 0.549507
13596.82031 0.549401
13597.91992 0.549296
13599.03027 0.54919
13600.12988 0.549071
13601.23047 0.548852
13602.33984 0.548632
13603.44043 0.548412
13604.54004 0.54843
13605.65039 0.548527
13606.75000 0.548624
13607.86035 0.548721
13608.95996 0.548818
13610.05957 0.548915
13611.16992 0.549011
13612.26953 0.549108
13613.37988 0.549204
13614.48047 0.5493
13615.58984 0.549397
13616.69043 0.549493
13617.79004 0.549589
13618.90039 0.549684
13620.00000 0.54978
13621.11035 0.549876
13622.20996 0.549971
13623.32031 0.550067
13624.41992 0.550104
13625.53027 0.550107
13626.62988 0.55011
13627.74023 0.550113
13628.84961 0.550116
13629.95020 0.550119
13631.05957 0.550122
13632.16016 0.550125
13633.26953 0.550128
13634.37988 0.550131
13635.48047 0.550133
13636.58984 0.550136
13637.69043 0.550138
13638.79980 0.550141
13639.91016 0.550143
13641.00977 0.550145
13642.12012 0.550148
13643.23047 0.55015
13644.33008 0.550011
13645.44043 0.549753
13646.54980 0.549496
13647.65039 0.549239
13648.75977 0.548981
13649.87012 0.548724
13650.96973 0.548511
13652.08008 0.548303
13653.19043 0.548096
13654.29980 0.547889
13655.41016 0.547681
13656.50977 0.547474
13657.62012 0.547267
13658.73047 0.547059
13659.83984 0.546852
13660.94043 0.546602
13662.04980 0.546346
13663.16016 0.546089
13664.26953 0.545926
13665.37988 0.545864
13666.49023 0.545802
13667.59961 0.545741
13668.70020 0.545679
13669.80957 0.545617
13670.91992 0.545555
13672.03027 0.545493
13673.13965 0.545431
13674.25000 0.545369
13675.36035 0.545307
13676.46973 0.545245
13677.58008 0.545182
13678.69043 0.54512
13679.79980 0.545058
13680.91016 0.544996
13682.01953 0.544933
13683.12988 0.544871
13684.24023 0.544761
13685.34961 0.544593
13686.45996 0.544424
13687.57031 0.544255
13688.67969 0.544087
13689.79004 0.543918
13690.90039 0.543749
13692.00977 0.543581
13693.12012 0.543412
13694.23047 0.543244
13695.33984 0.543076
13696.45020 0.542907
13697.55957 0.542738
13698.66992 0.54257
13699.79004 0.542401
13700.90039 0.542233
13702.00977 0.542065
13703.12012 0.541896
13704.23047 0.541732
13705.33984 0.541573
13706.45996 0.541413
13707.57031 0.541254
13708.67969 0.541095
13709.79004 0.540935
13710.90039 0.540776
13712.01953 0.540617
13713.12988 0.540458
13714.24023 0.540298
13715.34961 0.540139
13716.46973 0.53998
13717.58008 0.539821
13718.69043 0.539662
13719.79980 0.539502
13720.91992 0.539343
13722.03027 0.539184
13723.13965 0.539025
13724.25977 0.538875
13725.37012 0.538737
13726.48047 0.538599
13727.59961 0.538461
13728.70996 0.538323
13729.82031 0.538185
13730.94043 0.538047
13732.04980 0.537909
13733.16992 0.537771
13734.28027 0.537633
13735.38965 0.537495
13736.50977 0.537357
13737.62012 0.537219
13738.74023 0.537081
13739.84961 0.536943
13740.96973 0.536847
13742.08008 0.536758
13743.20020 0.536669
13744.30957 0.536552
13745.42969 0.536406
13746.54004 0.536259
13747.66016 0.536113
13748.76953 0.535967
13749.88965 0.535821
13751.00000 0.535631
13752.12012 0.535436
13753.23047 0.535241
13754.34961 0.535045
13755.45996 0.534851
13756.58008 0.534656
13757.70020 0.534461
13758.80957 0.534266
13759.92969 0.534071
13761.04004 0.533876
13762.16016 0.533681
13763.28027 0.533486
13764.38965 0.533336
13765.50977 0.533219
13766.62988 0.533102
13767.74023 0.532985
13768.86035 0.532868
13769.98047 0.532751
13771.08984 0.532634
13772.20996 0.532517
13773.33008 0.5324
13774.45020 0.532283
13775.55957 0.532166
13776.67969 0.532049
13777.79980 0.531932
13778.91992 0.531815
13780.03027 0.531698
13781.15039 0.531581
13782.26953 0.531464
13783.38965 0.531347
13784.50977 0.531107
13785.62012 0.530806
13786.74023 0.530504
13787.86035 0.530202
13788.98047 0.5299
13790.09961 0.529598
13791.21973 0.529296
13792.33984 0.528995
13793.45996 0.528693
13794.57031 0.528392
13795.69043 0.528091
13796.80957 0.527789
13797.92969 0.527488
13799.04980 0.527187
13800.16992 0.526891
13801.29004 0.526625
13802.41016 0.526358
13803.53027 0.526091
13804.65039 0.525962
13805.76953 0.52587
13806.88965 0.525779
13808.00977 0.525688
13809.12988 0.525597
13810.25000 0.525506
13811.37012 0.525415
13812.49023 0.525324
13813.61035 0.525232
13814.73047 0.525141
13815.84961 0.52505
13816.96973 0.524959
13818.08984 0.524868
13819.20996 0.524776
13820.33008 0.524685
13821.45996 0.524594
13822.58008 0.524503
13823.70020 0.524412
13824.82031 0.524287
13825.94043 0.524161
13827.05957 0.524034
13828.17969 0.523907
13829.30957 0.52378
13830.42969 0.523742
13831.54980 0.523849
13832.66992 0.523956
13833.79004 0.524062
13834.91992 0.524169
13836.04004 0.524275
13837.16016 0.524382
13838.28027 0.524489
13839.41016 0.524595
13840.53027 0.524702
13841.65039 0.524808
13842.78027 0.524915
13843.90039 0.525008
13845.01953 0.524977
13846.13965 0.524947
13847.26953 0.524917
13848.38965 0.524886
13849.50977 0.524856
13850.63965 0.524853
13851.75977 0.52487
13852.87988 0.524888
13854.00977 0.524905
13855.12988 0.524923
13856.25977 0.52494
13857.37988 0.524957
13858.50000 0.524975
13859.62988 0.524992
13860.75000 0.524976
13861.87988 0.524945
13863.00000 0.524914
13864.12988 0.524939
13865.25000 0.525097
13866.37988 0.525254
13867.50000 0.525412
13868.62988 0.525569
13869.75000 0.525727
13870.87988 0.525885
13872.00000 0.526042
13873.12988 0.5262
13874.25000 0.526358
13875.37988 0.526515
13876.50000 0.526673
13877.62988 0.526831
13878.75000 0.526989
13879.87988 0.527147
13881.00977 0.527305
13882.12988 0.527463
13883.25977 0.527621
13884.38965 0.527706
13885.50977 0.527726
13886.63965 0.527745
13887.75977 0.527765
13888.88965 0.527784
13890.01953 0.527804
13891.13965 0.527823
13892.26953 0.527842
13893.40039 0.527862
13894.53027 0.527881
13895.65039 0.5279
13896.78027 0.527919
13897.91016 0.527939
13899.04004 0.527958
13900.16016 0.527977
13901.29004 0.527996
13902.41992 0.528015
13903.54980 0.528034
13904.66992 0.528163
13905.79980 0.528324
13906.92969 0.528486
13908.05957 0.528647
13909.19043 0.528809
13910.30957 0.52897
13911.44043 0.529132
13912.57031 0.529293
13913.70020 0.529455
13914.83008 0.529617
13915.95996 0.529779
13917.08984 0.52994
13918.21973 0.530103
13919.33984 0.530264
13920.46973 0.530426
13921.59961 0.530588
13922.73047 0.53075
13923.86035 0.5309
13924.99023 0.530809
13926.12012 0.530718
13927.25000 0.530627
13928.37988 0.530536
13929.50977 0.530445
13930.63965 0.530354
13931.76953 0.530263
13932.90039 0.530172
13934.03027 0.53008
13935.16016 0.529988
13936.29004 0.529897
13937.41992 0.529805
13938.54980 0.529713
13939.67969 0.529621
13940.80957 0.529529
13941.95020 0.529438
13943.08008 0.529345
13944.20996 0.529401
13945.33984 0.529732
13946.46973 0.530062
13947.59961 0.530393
13948.73047 0.530723
13949.86035 0.531054
13951.00000 0.531385
13952.12988 0.531716
13953.25977 0.532047
13954.38965 0.532379
13955.51953 0.53271
13956.66016 0.533041
13957.79004 0.533373
13958.91992 0.533705
13960.04980 0.534037
13961.17969 0.534369
13962.32031 0.534702
13963.45020 0.535034
13964.58008 0.535142
13965.71973 0.535142
13966.84961 0.535142
13967.98047 0.535142
13969.12012 0.535142
13970.25000 0.535142
13971.37988 0.535142
13972.50977 0.535142
13973.65039 0.535141
13974.78027 0.535141
13975.91992 0.535141
13977.04980 0.53514
13978.17969 0.53514
13979.32031 0.535139
13980.45020 0.535139
13981.58008 0.535138
13982.71973 0.535138
13983.84961 0.535143
13984.99023 0.53535
13986.12012 0.535556
13987.25977 0.535763
13988.38965 0.53597
13989.53027 0.536177
13990.66016 0.536384
13991.79980 0.536591
13992.92969 0.536799
13994.07031 0.537006
13995.20020 0.537213
13996.33984 0.53742
13997.46973 0.537628
13998.61035 0.537836
13999.74023 0.538043
14000.87988 0.538204
14002.01953 0.538352
14003.15039 0.5385
14004.29004 0.538581
14005.41992 0.538564
14006.55957 0.538547
14007.70020 0.538531
14008.83008 0.538514
14009.96973 0.538497
14011.09961 0.53848
14012.24023 0.538463
14013.37988 0.538446
14014.50977 0.538428
14015.65039 0.538412
14016.79004 0.538394
14017.92969 0.538377
14019.05957 0.53836
14020.20020 0.538343
14021.33984 0.538326
14022.48047 0.538309
14023.61035 0.538292
14024.75000 0.538418
14025.88965 0.538579
14027.03027 0.538739
14028.16016 0.5389
14029.29980 0.539061
14030.44043 0.539222
14031.58008 0.539383
14032.71973 0.539544
14033.84961 0.539705
14034.99023 0.539866
14036.12988 0.540027
14037.26953 0.540188
14038.41016 0.540349
14039.54980 0.540511
14040.69043 0.540672
14041.83008 0.540833
14042.95996 0.540994
14044.09961 0.541137
14045.24023 0.541217
14046.37988 0.541297
14047.51953 0.541377
14048.66016 0.541457
14049.79980 0.541536
14050.94043 0.541617
14052.08008 0.541697
14053.21973 0.541776
14054.36035 0.541857
14055.50000 0.541937
14056.63965 0.542017
14057.78027 0.542097
14058.91992 0.542177
14060.05957 0.542257
14061.20020 0.542337
14062.33984 0.542417
14063.48047 0.542497
14064.62988 0.542552
14065.76953 0.542594
14066.91016 0.542637
14068.04980 0.542679
14069.19043 0.542722
14070.33008 0.542779
14071.46973 0.542872
14072.61035 0.542965
14073.75977 0.543058
14074.90039 0.543151
14076.04004 0.543245
14077.17969 0.543338
14078.32031 0.543431
14079.45996 0.543524
14080.61035 0.54359
14081.75000 0.543633
14082.88965 0.543675
14084.03027 0.543735
14085.17969 0.543885
14086.32031 0.544035
14087.45996 0.544185
14088.61035 0.544335
14089.75000 0.544485
14090.88965 0.544635
14092.03027 0.544785
14093.17969 0.544935
14094.32031 0.545085
14095.45996 0.545235
14096.61035 0.545385
14097.75000 0.545535
14098.88965 0.545686
14100.04004 0.545836
14101.17969 0.545986
14102.33008 0.546137
14103.46973 0.546287
14104.61035 0.546339
14105.75977 0.54634
14106.90039 0.546342
14108.04980 0.546343
14109.19043 0.546345
14110.33984 0.546346
14111.48047 0.546348
14112.62988 0.54635
14113.76953 0.546351
14114.91992 0.546352
14116.05957 0.546354
14117.20996 0.546355
14118.34961 0.546357
14119.50000 0.546358
14120.63965 0.54636
14121.79004 0.546361
14122.92969 0.546363
14124.08008 0.54639
14125.21973 0.546528
14126.37012 0.546666
14127.51953 0.546804
14128.66016 0.546942
14129.80957 0.54708
14130.95020 0.547219
14132.09961 0.547357
14133.25000 0.547495
14134.38965 0.547633
14135.54004 0.547771
14136.69043 0.54791
14137.83008 0.548048
14138.98047 0.548187
14140.12988 0.548325
14141.26953 0.548463
14142.41992 0.548602
14143.57031 0.54874
14144.71973 0.54874
14145.86035 0.54869
14147.00977 0.54864
14148.16016 0.548591
14149.30957 0.548541
14150.45996 0.548491
14151.59961 0.548442
14152.75000 0.548392
14153.90039 0.548342
14155.04980 0.548292
14156.20020 0.548243
14157.33984 0.548193
14158.49023 0.548143
14159.63965 0.548093
14160.79004 0.548043
14161.94043 0.547993
14163.08984 0.547943
14164.24023 0.547932
14165.37988 0.548003
14166.53027 0.548075
14167.67969 0.548147
14168.83008 0.548218
14169.98047 0.54829
14171.12988 0.548361
14172.28027 0.548433
14173.42969 0.548504
14174.58008 0.548576
14175.73047 0.548648
14176.87988 0.548719
14178.03027 0.548791
14179.17969 0.548863
14180.33008 0.548934
14181.48047 0.549006
14182.62988 0.549078
14183.78027 0.549149
14184.92969 0.549183
14186.08008 0.549213
14187.23047 0.549243
14188.38965 0.549273
14189.54004 0.549303
14190.69043 0.549302
14191.83984 0.54928
14192.99023 0.549258
14194.13965 0.549237
14195.29004 0.549215
14196.44043 0.549193
14197.59961 0.549172
14198.75000 0.54915
14199.90039 0.549128
14201.04980 0.549101
14202.20020 0.549073
14203.36035 0.549046
14204.50977 0.549034
14205.66016 0.549035
14206.80957 0.549037
14207.95996 0.549038
14209.12012 0.549039
14210.26953 0.549041
14211.41992 0.549042
14212.58008 0.549043
14213.73047 0.549045
14214.87988 0.549046
14216.04004 0.549047
14217.19043 0.549049
14218.33984 0.54905
14219.50000 0.549051
14220.65039 0.549053
14221.79980 0.549054
14222.95996 0.549055
14224.11035 0.549054
14225.25977 0.549043
14226.41992 0.549031
14227.57031 0.549019
14228.73047 0.549008
14229.87988 0.548996
14231.03027 0.548985
14232.19043 0.548973
14233.33984 0.548962
14234.50000 0.54895
14235.65039 0.548939
14236.80957 0.548927
14237.95996 0.548916
14239.12012 0.548904
14240.26953 0.548892
14241.42969 0.548881
14242.58008 0.548869
14243.74023 0.548858
14244.88965 0.548838
14246.04980 0.548816
14247.20996 0.548795
14248.36035 0.548774
14249.51953 0.548752
14250.66992 0.548731
14251.83008 0.54871
14252.99023 0.548689
14254.13965 0.548668
14255.29980 0.548646
14256.45020 0.548625
14257.61035 0.548604
14258.76953 0.548582
14259.91992 0.548561
14261.08008 0.54854
14262.24023 0.548518
14263.38965 0.548497
14264.54980 0.548456
14265.70996 0.548399
14266.87012 0.548342
14268.01953 0.548285
14269.17969 0.548228
14270.33984 0.548171
14271.50000 0.548114
14272.65039 0.548058
14273.80957 0.548001
14274.96973 0.547944
14276.12988 0.547887
14277.29004 0.54783
14278.44043 0.547773
14279.59961 0.547716
14280.75977 0.547659
14281.91992 0.547602
14283.08008 0.547545
14284.24023 0.547527
14285.40039 0.547606
14286.54980 0.547685
14287.70996 0.547764
14288.87012 0.547843
14290.03027 0.547922
14291.19043 0.548001
14292.34961 0.54808
14293.50977 0.548159
14294.66992 0.548238
14295.83008 0.548317
14296.99023 0.548396
14298.15039 0.548475
14299.30957 0.548554
14300.46973 0.548633
14301.62988 0.548713
14302.79004 0.548792
14303.95020 0.548867
14305.11035 0.548826
14306.26953 0.548785
14307.42969 0.548744
14308.58984 0.548703
14309.75000 0.548662
14310.91016 0.548621
14312.07031 0.548581
14313.23047 0.54854
14314.40039 0.548499
14315.55957 0.548458
14316.71973 0.548417
14317.87988 0.548376
14319.04004 0.548335
14320.20020 0.548294
14321.36035 0.548253
14322.53027 0.548212
14323.69043 0.548172
14324.84961 0.548159
14326.00977 0.548154
14327.16992 0.548149
14328.33984 0.548144
14329.50000 0.548138
14330.66016 0.548133
14331.82031 0.548128
14332.99023 0.548123
14334.15039 0.548118
14335.30957 0.548112
14336.46973 0.548107
14337.63965 0.548102
14338.79980 0.548097
14339.95996 0.548091
14341.12988 0.548086
14342.29004 0.548081
14343.45020 0.548076
14344.62012 0.54809
14345.78027 0.548117
14346.95020 0.548144
14348.11035 0.548172
14349.26953 0.548199
14350.44043 0.548226
14351.59961 0.548253
14352.76953 0.548281
14353.92969 0.548308
14355.08984 0.548335
14356.25977 0.548363
14357.41992 0.54839
14358.58984 0.548417
14359.75000 0.548445
14360.91992 0.548472
14362.08008 0.548499
14363.25000 0.548527
14364.41016 0.548562
14365.58008 0.548609
14366.74023 0.548656
14367.91016 0.548702
14369.07031 0.548749
14370.24023 0.548796
14371.41016 0.548843
14372.57031 0.54889
14373.74023 0.548937
14374.90039 0.548984
14376.07031 0.54903
14377.24023 0.549077
14378.40039 0.549124
14379.57031 0.549171
14380.74023 0.549218
14381.90039 0.549265
14383.07031 0.549312
14384.24023 0.549349
14385.40039 0.54936
14386.57031 0.549371
14387.74023 0.549382
14388.90039 0.549393
14390.07031 0.549401
14391.24023 0.54936
14392.41016 0.549318
14393.57031 0.549277
14394.74023 0.549236
14395.91016 0.549194
14397.08008 0.549153
14398.24023 0.549111
14399.41016 0.54907
14400.58008 0.549048
14401.75000 0.549047
14402.91992 0.549046
14404.08008 0.549049
14405.25000 0.549081
14406.41992 0.549112
14407.58984 0.549144
14408.75977 0.549175
14409.92969 0.549207
14411.09961 0.549238
14412.26953 0.54927
14413.44043 0.549301
14414.61035 0.549333
14415.76953 0.549364
14416.94043 0.549396
14418.11035 0.549427
14419.28027 0.549459
14420.45020 0.54949
14421.62012 0.549522
14422.79004 0.549553
14423.95996 0.549585
14425.12988 0.549643
14426.29980 0.549701
14427.46973 0.549758
14428.63965 0.549816
14429.80957 0.549874
14430.98047 0.549931
14432.16016 0.549989
14433.33008 0.550047
14434.50000 0.550104
14435.66992 0.550162
14436.83984 0.55022
14438.00977 0.550277
14439.17969 0.550335
14440.34961 0.550393
14441.51953 0.55045
14442.70020 0.550508
14443.87012 0.550566
14445.04004 0.550614
14446.20996 0.550663
14447.37988 0.55071
14448.54980 0.550758
14449.73047 0.550806
14450.90039 0.550854
14452.07031 0.550902
14453.24023 0.55095
14454.41992 0.550998
14455.58984 0.551046
14456.75977 0.551094
14457.92969 0.551141
14459.11035 0.551189
14460.28027 0.551237
14461.45020 0.551285
14462.62988 0.551333
14463.79980 0.551381
14464.96973 0.551361
14466.15039 0.55133
14467.32031 0.551299
14468.49023 0.551269
14469.66992 0.551238
14470.83984 0.551207
14472.00977 0.551176
14473.19043 0.551146
14474.36035 0.551115
14475.54004 0.551084
14476.70996 0.551054
14477.88965 0.551023
14479.05957 0.550992
14480.24023 0.550962
14481.41016 0.550931
14482.58008 0.5509
14483.75977 0.55087
14484.92969 0.550964
14486.11035 0.551084
14487.28027 0.551204
14488.45996 0.551324
14489.62988 0.551445
14490.80957 0.551565
14491.99023 0.551685
14493.16016 0.551805
14494.33984 0.551925
14495.50977 0.552045
14496.69043 0.552165
14497.87012 0.552286
14499.04004 0.552406
14500.21973 0.552522
14501.38965 0.552619
14502.57031 0.552717
14503.75000 0.552814
14504.91992 0.552809
14506.09961 0.552782
14507.28027 0.552755
14508.45020 0.552728
14509.62988 0.5527
14510.80957 0.552709
14511.98047 0.552735
14513.16016 0.552761
14514.33984 0.552787
14515.51953 0.552813
14516.69043 0.552839
14517.87012 0.552865
14519.04980 0.552891
14520.23047 0.552917
14521.41016 0.552943
14522.58008 0.552968
14523.75977 0.552995
14524.94043 0.552991
14526.12012 0.55298
14527.29980 0.55297
14528.46973 0.55296
14529.65039 0.55295
14530.83008 0.55294
14532.00977 0.552929
14533.19043 0.552919
14534.37012 0.552909
14535.54980 0.552898
14536.73047 0.552888
14537.91016 0.552878
14539.08984 0.552868
14540.25977 0.552858
14541.44043 0.552847
14542.62012 0.552837
14543.79980 0.552827
14544.98047 0.552811
14546.16016 0.552794
14547.33984 0.552777
14548.51953 0.55276
14549.70020 0.552744
14550.87988 0.552727
14552.05957 0.55271
14553.25000 0.552693
14554.42969 0.552676
14555.61035 0.552659
14556.79004 0.552642
14557.96973 0.552625
14559.15039 0.552608
14560.33008 0.552592
14561.50977 0.552575
14562.69043 0.552558
14563.87012 0.552541
14565.05957 0.552482
14566.24023 0.552419
14567.41992 0.552355
14568.59961 0.552292
14569.78027 0.552229
14570.95996 0.552122
14572.15039 0.552006
14573.33008 0.551889
14574.50977 0.551772
14575.69043 0.551656
14576.87988 0.551539
14578.05957 0.551423
14579.24023 0.551306
14580.41992 0.551208
14581.61035 0.551145
14582.79004 0.551082
14583.96973 0.551019
14585.16016 0.550972
14586.33984 0.550925
14587.51953 0.550878
14588.70996 0.550831
14589.88965 0.550785
14591.07031 0.550738
14592.25977 0.550691
14593.44043 0.550644
14594.62012 0.550597
14595.80957 0.55055
14596.99023 0.550504
14598.16992 0.550457
14599.36035 0.55041
14600.54004 0.55036
14601.73047 0.550306
14602.91016 0.550251
14604.09961 0.550194
14605.28027 0.550107
14606.46973 0.55002
14607.65039 0.549932
14608.83984 0.549845
14610.01953 0.549758
14611.20996 0.549671
14612.38965 0.549583
14613.58008 0.549496
14614.75977 0.549408
14615.95020 0.549321
14617.12988 0.549234
14618.32031 0.549146
14619.50977 0.549059
14620.69043 0.548971
14621.87988 0.548884
14623.05957 0.548797
14624.25000 0.548718
14625.44043 0.548674
14626.62012 0.54863
14627.80957 0.548585
14629.00000 0.548541
14630.17969 0.548497
14631.37012 0.548452
14632.55957 0.548408
14633.74023 0.548363
14634.92969 0.548319
14636.12012 0.548274
14637.30957 0.54823
14638.49023 0.548186
14639.67969 0.548141
14640.87012 0.548058
14642.05957 0.54796
14643.24023 0.547862
14644.42969 0.547746
14645.62012 0.547599
14646.80957 0.547451
14648.00000 0.547303
14649.17969 0.547156
14650.37012 0.547025
14651.55957 0.546931
14652.75000 0.546836
14653.94043 0.546742
14655.12988 0.546647
14656.32031 0.546553
14657.50000 0.546459
14658.69043 0.546364
14659.87988 0.54627
14661.07031 0.546176
14662.25977 0.546081
14663.45020 0.545987
14664.63965 0.545929
14665.83008 0.545905
14667.01953 0.54588
14668.20996 0.545856
14669.40039 0.545831
14670.58984 0.545806
14671.78027 0.545782
14672.96973 0.545757
14674.16016 0.545732
14675.34961 0.545708
14676.54004 0.545683
14677.73047 0.545659
14678.91992 0.545634
14680.11035 0.545609
14681.29980 0.545584
14682.50000 0.54556
14683.69043 0.545535
14684.87988 0.54551
14686.07031 0.545486
14687.25977 0.545461
14688.45020 0.545436
14689.63965 0.545412
14690.83008 0.545387
14692.03027 0.545362
14693.21973 0.545338
14694.41016 0.545313
14695.59961 0.545288
14696.79004 0.545263
14697.99023 0.545239
14699.17969 0.545214
14700.37012 0.545173
14701.55957 0.545095
14702.75977 0.545017
14703.95020 0.544938
14705.13965 0.544945
14706.33984 0.544957
14707.53027 0.544969
14708.71973 0.544981
14709.91992 0.544993
14711.11035 0.545055
14712.29980 0.54512
14713.50000 0.545186
14714.69043 0.545251
14715.87988 0.545316
14717.08008 0.545382
14718.26953 0.545447
14719.45996 0.545513
14720.66016 0.545578
14721.84961 0.545644
14723.04980 0.545709
14724.24023 0.545771
14725.44043 0.545817
14726.62988 0.545862
14727.82031 0.545907
14729.01953 0.545953
14730.20996 0.545998
14731.41016 0.546044
14732.59961 0.546089
14733.79980 0.546135
14734.99023 0.54618
14736.19043 0.546225
14737.38965 0.546271
14738.58008 0.546317
14739.78027 0.546362
14740.96973 0.546408
14742.16992 0.546453
14743.36035 0.546499
14744.55957 0.546532
14745.75977 0.546551
14746.95020 0.54657
14748.15039 0.546588
14749.33984 0.546607
14750.54004 0.546601
14751.74023 0.546567
14752.92969 0.546532
14754.12988 0.546497
14755.33008 0.546462
14756.53027 0.546427
14757.71973 0.546392
14758.91992 0.546357
14760.12012 0.546327
14761.30957 0.546346
14762.50977 0.546364
14763.70996 0.546383
14764.91016 0.546431
14766.09961 0.54649
14767.29980 0.546549
14768.50000 0.546608
14769.70020 0.546667
14770.90039 0.546726
14772.09961 0.546785
14773.29004 0.546844
14774.49023 0.546903
14775.69043 0.546962
14776.88965 0.547021
14778.08984 0.54708
14779.29004 0.547139
14780.49023 0.547198
14781.67969 0.547257
14782.87988 0.547317
14784.08008 0.547377
14785.28027 0.547466
14786.48047 0.547555
14787.67969 0.547645
14788.87988 0.547734
14790.08008 0.54782
14791.28027 0.547855
14792.48047 0.54789
14793.67969 0.547926
14794.87988 0.547961
14796.08008 0.547996
14797.28027 0.548032
14798.48047 0.548067
14799.67969 0.548102
14800.87988 0.548172
14802.08008 0.548255
14803.28027 0.548338
14804.48047 0.548408
14805.69043 0.548458
14806.88965 0.548507
14808.08984 0.548556
14809.29004 0.548605
14810.49023 0.548654
14811.69043 0.548704
14812.88965 0.548753
14814.09961 0.548802
14815.29980 0.548851
14816.50000 0.5489
14817.70020 0.54895
14818.90039 0.548999
14820.11035 0.549048
14821.30957 0.549097
14822.50977 0.549147
14823.70996 0.549196
14824.91992 0.549265
14826.12012 0.549341
14827.32031 0.549417
14828.51953 0.549493
14829.73047 0.549569
14830.92969 0.549604
14832.12988 0.549625
14833.33008 0.549647
14834.54004 0.549669
14835.74023 0.549691
14836.95020 0.549713
14838.15039 0.549735
14839.34961 0.549756
14840.55957 0.549803
14841.75977 0.54988
14842.95996 0.549956
14844.16992 0.550029
14845.37012 0.550068
14846.58008 0.550107
14847.78027 0.550146
14848.99023 0.550185
14850.19043 0.550225
14851.40039 0.550264
14852.59961 0.550303
14853.79980 0.550342
14855.00977 0.550381
14856.20996 0.550421
14857.41992 0.55046
14858.62988 0.550499
14859.83008 0.550539
14861.04004 0.550578
14862.24023 0.550617
14863.45020 0.550656
14864.65039 0.550686
14865.86035 0.550705
14867.07031 0.550724
14868.26953 0.550743
14869.48047 0.550762
14870.67969 0.55075
14871.88965 0.550714
14873.09961 0.550678
14874.29980 0.550643
14875.50977 0.550607
14876.71973 0.550571
14877.91992 0.550536
14879.12988 0.5505
14880.33984 0.550479
14881.54004 0.550499
14882.75000 0.550517
14883.95996 0.550537
14885.16992 0.550568
14886.37012 0.550601
14887.58008 0.550633
14888.79004 0.550666
14890.00000 0.550698
14891.20996 0.550731
14892.41016 0.550763
14893.62012 0.550796
14894.83008 0.550828
14896.04004 0.550861
14897.25000 0.550894
14898.45020 0.550926
14899.66016 0.550959
14900.87012 0.550991
14902.08008 0.551024
14903.29004 0.551056
14904.50000 0.551112
14905.70996 0.551208
14906.91992 0.551305
14908.12988 0.551402
14909.33008 0.551499
14910.54004 0.551571
14911.75000 0.551613
14912.95996 0.551655
14914.16992 0.551697
14915.37988 0.551739
14916.58984 0.551781
14917.79980 0.551823
14919.00977 0.551865
14920.21973 0.551917
14921.42969 0.552014
14922.63965 0.552111
14923.86035 0.552207
14925.07031 0.552238
14926.28027 0.552254
14927.49023 0.552269
14928.70020 0.552285
14929.91016 0.552301
14931.12012 0.552316
14932.33008 0.552332
14933.54004 0.552348
14934.75000 0.552364
14935.96973 0.55238
14937.17969 0.552395
14938.38965 0.552411
14939.59961 0.552427
14940.80957 0.552442
14942.03027 0.552458
14943.24023 0.552474
14944.45020 0.552525
14945.66016 0.55266
14946.87012 0.552794
14948.08984 0.552929
14949.29980 0.553063
14950.50977 0.553174
14951.73047 0.553253
14952.94043 0.553333
14954.15039 0.553412
14955.36035 0.553491
14956.58008 0.55357
14957.79004 0.553649
14959.00000 0.553728
14960.21973 0.553817
14961.42969 0.553951
14962.65039 0.554086
14963.86035 0.554221
14965.07031 0.554256
14966.29004 0.554268
14967.50000 0.554281
14968.71973 0.554293
14969.92969 0.554305
14971.13965 0.554318
14972.36035 0.55433
14973.57031 0.554342
14974.79004 0.554355
14976.00000 0.554367
14977.21973 0.55438
14978.42969 0.554392
14979.65039 0.554404
14980.86035 0.554377
14982.08008 0.554334
14983.29004 0.554291
14984.50977 0.554275
14985.71973 0.554314
14986.94043 0.554352
14988.16016 0.55439
14989.37012 0.554428
14990.58984 0.554494
14991.79980 0.554588
14993.01953 0.554682
14994.24023 0.554776
14995.45020 0.554869
14996.66992 0.554963
14997.88965 0.555057
14999.09961 0.555152
15000.32031 0.555237
15001.54004 0.555299
15002.75000 0.55536
15003.96973 0.555422
15005.19043 0.555423
15006.40039 0.555416
15007.62012 0.55541
15008.83984 0.555404
15010.05957 0.555395
15011.26953 0.555332
15012.49023 0.55527
15013.70996 0.555208
15014.92969 0.555146
15016.15039 0.555083
15017.36035 0.555021
15018.58008 0.554959
15019.79980 0.554897
15021.01953 0.554881
15022.24023 0.554875
15023.45996 0.554868
15024.66992 0.554867
15025.88965 0.55487
15027.11035 0.554874
15028.33008 0.554878
15029.54980 0.554882
15030.76953 0.554886
15031.99023 0.554889
15033.20996 0.554893
15034.42969 0.554897
15035.65039 0.554901
15036.87012 0.554905
15038.08984 0.554908
15039.30957 0.554912
15040.53027 0.554892
15041.75000 0.554839
15042.96973 0.554787
15044.19043 0.55473
15045.41016 0.5546
15046.62988 0.554469
15047.84961 0.554339
15049.07031 0.554208
15050.29004 0.554091
15051.50977 0.554017
15052.73047 0.553943
15053.95996 0.553868
15055.17969 0.553794
15056.40039 0.553719
15057.62012 0.553645
15058.83984 0.55357
15060.05957 0.553496
15061.28027 0.553422
15062.50000 0.553347
15063.73047 0.553273
15064.95020 0.553184
15066.16992 0.553089
15067.38965 0.552995
15068.62012 0.552899
15069.83984 0.552805
15071.05957 0.552662
15072.28027 0.552511
15073.50977 0.55236
15074.73047 0.552209
15075.95020 0.552059
15077.16992 0.551908
15078.40039 0.551757
15079.62012 0.551606
15080.83984 0.551494
15082.07031 0.5514
15083.29004 0.551305
15084.50977 0.551203
15085.74023 0.551084
15086.95996 0.550965
15088.19043 0.550847
15089.41016 0.550728
15090.62988 0.550609
15091.86035 0.550491
15093.08008 0.550372
15094.30957 0.550254
15095.53027 0.550135
15096.75977 0.550016
15097.98047 0.549898
15099.20996 0.549779
15100.42969 0.549641
15101.66016 0.549467
15102.87988 0.549292
15104.11035 0.549118
15105.33008 0.54893
15106.55957 0.548743
15107.78027 0.548555
15109.00977 0.548367
15110.23047 0.54819
15111.45996 0.548058
15112.67969 0.547925
15113.91016 0.547793
15115.13965 0.547661
15116.36035 0.547529
15117.58984 0.547397
15118.82031 0.547265
15120.04004 0.547133
15121.26953 0.547001
15122.50000 0.546868
15123.71973 0.546736
15124.95020 0.546566
15126.17969 0.546376
15127.40039 0.546186
15128.62988 0.545996
15129.86035 0.545806
15131.08008 0.545567
15132.30957 0.545321
15133.54004 0.545076
15134.76953 0.54483
15136.00000 0.544585
15137.21973 0.54434
15138.45020 0.544095
15139.67969 0.543849
15140.91016 0.543645
15142.13965 0.543455
15143.36035 0.543265
15144.58984 0.543063
15145.82031 0.542839
15147.04980 0.542615
15148.28027 0.542391
15149.50977 0.542167
15150.74023 0.541944
15151.96973 0.54172
15153.19043 0.541496
15154.41992 0.541272
15155.65039 0.541048
15156.87988 0.540824
15158.11035 0.540601
15159.33984 0.540377
15160.57031 0.540127
15161.79980 0.539848
15163.03027 0.53957
15164.25977 0.539293
15165.49023 0.539038
15166.71973 0.538783
15167.95020 0.538528
15169.17969 0.538273
15170.41016 0.538037
15171.63965 0.537837
15172.87012 0.537637
15174.11035 0.537437
15175.33984 0.537238
15176.57031 0.537038
15177.79980 0.536838
15179.03027 0.536638
15180.25977 0.536426
15181.49023 0.536172
15182.71973 0.535917
15183.95996 0.535663
15185.19043 0.535431
15186.41992 0.535203
15187.65039 0.534976
15188.87988 0.534749
15190.12012 0.534527
15191.34961 0.534354
15192.58008 0.534182
15193.80957 0.534009
15195.04980 0.533837
15196.28027 0.533664
15197.50977 0.533492
15198.74023 0.533319
15199.98047 0.533147
15201.20996 0.532969
15202.44043 0.532791
15203.67969 0.532613
15204.91016 0.532437
15206.13965 0.532263
15207.37988 0.532088
15208.61035 0.531914
15209.83984 0.531739
15211.08008 0.531517
15212.30957 0.531288
15213.54980 0.531059
15214.78027 0.53083
15216.00977 0.530601
15217.25000 0.530373
15218.48047 0.530144
15219.71973 0.529915
15220.95020 0.529728
15222.19043 0.529554
15223.41992 0.52938
15224.66016 0.529241
15225.88965 0.529155
15227.12988 0.529069
15228.36035 0.528983
15229.59961 0.528897
15230.83008 0.528775
15232.07031 0.528635
15233.29980 0.528494
15234.54004 0.528354
15235.78027 0.528214
15237.00977 0.528074
15238.25000 0.527934
15239.48047 0.527794
15240.71973 0.527685
15241.95996 0.527599
15243.19043 0.527514
15244.42969 0.527433
15245.66992 0.527371
15246.90039 0.527309
15248.13965 0.527247
15249.37988 0.527185
15250.61035 0.527123
15251.84961 0.527061
15253.08984 0.526999
15254.33008 0.526937
15255.55957 0.526875
15256.79980 0.526813
15258.04004 0.526751
15259.28027 0.526689
15260.50977 0.526604
15261.75000 0.526488
15262.99023 0.526371
15264.23047 0.526255
15265.46973 0.526142
15266.70996 0.52603
15267.94043 0.525917
15269.17969 0.525804
15270.41992 0.52571
15271.66016 0.525651
15272.90039 0.525592
15274.13965 0.525534
15275.37988 0.525475
15276.62012 0.525417
15277.86035 0.525358
15279.08984 0.5253
15280.33008 0.525226
15281.57031 0.525113
15282.80957 0.525001
15284.04980 0.524888
15285.29004 0.524821
15286.53027 0.524759
15287.76953 0.524698
15289.00977 0.524636
15290.25000 0.524585
15291.49023 0.524577
15292.73047 0.52457
15293.98047 0.524562
15295.21973 0.524555
15296.45996 0.524547
15297.70020 0.524539
15298.94043 0.524532
15300.17969 0.524516
15301.41992 0.524454
15302.66016 0.524393
15303.90039 0.524331
15305.13965 0.52429
15306.38965 0.524255
15307.62988 0.52422
15308.87012 0.524186
15310.11035 0.524156
15311.34961 0.524176
15312.59961 0.524195
15313.83984 0.524215
15315.08008 0.524234
15316.32031 0.524254
15317.57031 0.524273
15318.80957 0.524293
15320.04980 0.52431
15321.29004 0.524275
15322.54004 0.52424
15323.78027 0.524206
15325.01953 0.524187
15326.26953 0.524176
15327.50977 0.524165
15328.75000 0.524153
15330.00000 0.524142
15331.24023 0.524185
15332.48047 0.524229
15333.73047 0.524272
15334.96973 0.524315
15336.20996 0.524358
15337.45996 0.524401
15338.70020 0.524445
15339.95020 0.524488
15341.19043 0.524479
15342.44043 0.524468
15343.67969 0.524457
15344.92969 0.524443
15346.16992 0.524428
15347.41992 0.524414
15348.66016 0.524399
15349.91016 0.524384
15351.15039 0.52442
15352.40039 0.52446
15353.63965 0.5245
15354.88965 0.524539
15356.12988 0.524579
15357.37988 0.524619
15358.62012 0.524659
15359.87012 0.524698
15361.12012 0.524738
15362.36035 0.524778
15363.61035 0.524818
15364.86035 0.524863
15366.09961 0.524913
15367.34961 0.524962
15368.58984 0.525013
15369.83984 0.525062
15371.08984 0.525065
15372.33008 0.52506
15373.58008 0.525055
15374.83008 0.52505
15376.08008 0.525045
15377.32031 0.525041
15378.57031 0.525035
15379.82031 0.525031
15381.07031 0.525073
15382.30957 0.525122
15383.55957 0.525172
15384.80957 0.525239
15386.05957 0.525322
15387.30957 0.525406
15388.54980 0.52549
15389.79980 0.525574
15391.04980 0.525611
15392.29980 0.52564
15393.54980 0.525669
15394.79980 0.525698
15396.04980 0.525726
15397.29004 0.525755
15398.54004 0.525784
15399.79004 0.525813
15401.04004 0.52589
15402.29004 0.525977
15403.54004 0.526064
15404.79004 0.526127
15406.04004 0.526163
15407.29004 0.5262
15408.54004 0.526236
15409.79004 0.526272
15411.04004 0.526262
15412.29004 0.526243
15413.54004 0.526224
15414.79004 0.526205
15416.04004 0.526186
15417.29004 0.526167
15418.54004 0.526148
15419.79004 0.526129
15421.04004 0.526156
15422.29980 0.526192
15423.54980 0.526228
15424.79980 0.526264
15426.04980 0.5263
15427.29980 0.526337
15428.54980 0.526373
15429.79980 0.526409
15431.05957 0.526398
15432.30957 0.526379
15433.55957 0.52636
15434.80957 0.526341
15436.05957 0.526321
15437.32031 0.526302
15438.57031 0.526283
15439.82031 0.526264
15441.07031 0.526292
15442.33008 0.526328
15443.58008 0.526364
15444.83008 0.526412
15446.08008 0.526471
15447.33984 0.526531
15448.58984 0.526591
15449.83984 0.52665
15451.09961 0.526662
15452.34961 0.526666
15453.59961 0.526671
15454.86035 0.526675
15456.11035 0.526679
15457.37012 0.526683
15458.62012 0.526688
15459.87012 0.526692
15461.12988 0.526696
15462.37988 0.526701
15463.63965 0.526705
15464.88965 0.526693
15466.13965 0.526666
15467.40039 0.52664
15468.65039 0.526614
15469.91016 0.526587
15471.16016 0.526612
15472.41992 0.526641
15473.66992 0.526671
15474.92969 0.526699
15476.17969 0.526729
15477.44043 0.526758
15478.70020 0.526787
15479.95020 0.526816
15481.20996 0.526792
15482.45996 0.526765
15483.71973 0.526739
15484.98047 0.526694
15486.23047 0.526637
15487.49023 0.52658
15488.74023 0.526523
15490.00000 0.526466
15491.25977 0.526465
15492.50977 0.526463
15493.76953 0.526462
15495.03027 0.52646
15496.28027 0.526459
15497.54004 0.526458
15498.79980 0.526456
15500.05957 0.526453
15501.30957 0.526414
15502.57031 0.526375
15503.83008 0.526335
15505.08984 0.526305
15506.33984 0.52628
15507.59961 0.526254
15508.86035 0.526228
15510.12012 0.526207
15511.37988 0.526237
15512.62988 0.526267
15513.88965 0.526297
15515.15039 0.526327
15516.41016 0.526357
15517.66992 0.526387
15518.92969 0.526416
15520.19043 0.526438
15521.45020 0.526412
15522.70996 0.526386
15523.95996 0.526361
15525.21973 0.526303
15526.48047 0.526236
15527.74023 0.52617
15529.00000 0.526103
15530.25977 0.526048
15531.51953 0.526038
15532.78027 0.526027
15534.04004 0.526016
15535.29980 0.526005
15536.55957 0.525995
15537.82031 0.525984
15539.08008 0.525973
15540.33984 0.525947
15541.59961 0.52588
15542.87012 0.525814
15544.12988 0.525747
15545.38965 0.525641
15546.65039 0.52553
15547.91016 0.52542
15549.16992 0.525309
15550.42969 0.525199
15551.69043 0.525088
15552.95996 0.524977
15554.21973 0.524867
15555.48047 0.524756
15556.74023 0.524646
15558.00000 0.524535
15559.25977 0.524424
15560.53027 0.524337
15561.79004 0.524282
15563.04980 0.524227
15564.30957 0.524173
15565.58008 0.524114
15566.83984 0.524056
15568.09961 0.523998
15569.37012 0.52394
15570.62988 0.523854
15571.88965 0.52374
15573.15039 0.523626
15574.41992 0.523512
15575.67969 0.523398
15576.94043 0.523284
15578.20996 0.52317
15579.46973 0.523056
15580.74023 0.522975
15582.00000 0.522917
15583.25977 0.522858
15584.53027 0.522794
15585.79004 0.522705
15587.05957 0.522616
15588.32031 0.522528
15589.58984 0.522439
15590.84961 0.522313
15592.12012 0.522168
15593.37988 0.522024
15594.63965 0.52188
15595.91016 0.521735
15597.16992 0.521591
15598.44043 0.521447
15599.70996 0.521302
15600.96973 0.521198
15602.24023 0.521106
15603.50000 0.521013
15604.76953 0.520906
15606.03027 0.520777
15607.29980 0.520647
15608.57031 0.520518
15609.83008 0.520388
15611.09961 0.520211
15612.37012 0.520026
15613.62988 0.519841
15614.90039 0.519656
15616.16992 0.51947
15617.42969 0.519285
15618.70020 0.5191
15619.96973 0.518915
15621.23047 0.51873
15622.50000 0.518546
15623.76953 0.518361
15625.04004 0.518169
15626.29980 0.517974
15627.57031 0.517779
15628.83984 0.517584
15630.11035 0.517394
15631.37012 0.517254
15632.63965 0.517115
15633.91016 0.516976
15635.17969 0.516836
15636.45020 0.516697
15637.70996 0.516557
15638.98047 0.516417
15640.25000 0.516267
15641.51953 0.516072
15642.79004 0.515877
15644.05957 0.515682
15645.33008 0.515442
15646.59961 0.515193
15647.87012 0.514944
15649.13965 0.514695
15650.41016 0.514446
15651.66992 0.514197
15652.95020 0.513948
15654.20996 0.513699
15655.48047 0.51345
15656.75000 0.513201
15658.01953 0.512953
15659.29004 0.512704
15660.57031 0.51248
15661.83984 0.512286
15663.11035 0.512092
15664.37988 0.511898
15665.65039 0.511684
15666.91992 0.51147
15668.19043 0.511256
15669.45996 0.511042
15670.73047 0.510796
15672.00000 0.510527
15673.26953 0.510258
15674.54980 0.509989
15675.82031 0.50972
15677.08984 0.509452
15678.36035 0.509183
15679.62988 0.508914
15680.90039 0.508684
15682.17969 0.508471
15683.45020 0.508257
15684.71973 0.508062
15685.99023 0.507902
15687.26953 0.507742
15688.54004 0.507583
15689.80957 0.507423
15691.08008 0.507216
15692.36035 0.507002
15693.62988 0.506787
15694.90039 0.506573
15696.17969 0.506359
15697.45020 0.506144
15698.71973 0.50593
15700.00000 0.505716
15701.26953 0.505502
15702.54004 0.505287
15703.82031 0.505073
15705.08984 0.504822
15706.37012 0.504551
15707.63965 0.504279
15708.91016 0.504007
15710.19043 0.503744
15711.45996 0.503527
15712.74023 0.50331
15714.00977 0.503093
15715.29004 0.502875
15716.55957 0.502658
15717.83984 0.502441
15719.11035 0.502224
15720.38965 0.50199
15721.66016 0.501719
15722.94043 0.501447
15724.20996 0.501176
15725.49023 0.500936
15726.75977 0.500699
15728.04004 0.500461
15729.32031 0.500224
15730.58984 0.499986
15731.87012 0.499749
15733.13965 0.499511
15734.41992 0.499274
15735.70020 0.499036
15736.96973 0.498799
15738.25000 0.498562
15739.53027 0.498325
15740.79980 0.498121
15742.08008 0.497939
15743.36035 0.497755
15744.62988 0.497608
15745.91016 0.49756
15747.19043 0.497512
15748.46973 0.497464
15749.74023 0.497417
15751.01953 0.497326
15752.29980 0.497224
15753.58008 0.497122
15754.86035 0.49702
15756.12988 0.496919
15757.41016 0.496817
15758.69043 0.496715
15759.96973 0.496613
15761.25000 0.496511
15762.53027 0.49641
15763.79980 0.496308
15765.08008 0.496262
15766.36035 0.496251
15767.63965 0.496241
15768.91992 0.49623
15770.20020 0.49622
15771.48047 0.49621
15772.75977 0.496199
15774.04004 0.496189
15775.32031 0.496178
15776.59961 0.496167
15777.87988 0.496157
15779.16016 0.496146
15780.44043 0.496154
15781.71973 0.496198
15783.00000 0.496242
15784.28027 0.496285
15785.55957 0.496454
15786.83984 0.496627
15788.12012 0.496799
15789.40039 0.496971
15790.67969 0.497114
15791.95996 0.497232
15793.24023 0.49735
15794.51953 0.497468
15795.80957 0.497585
15797.08984 0.497703
15798.37012 0.497821
15799.65039 0.497938
15800.92969 0.498058
15802.20996 0.498178
15803.50000 0.498298
15804.78027 0.498488
15806.05957 0.498804
15807.33984 0.49912
15808.62012 0.499436
15809.91016 0.499752
15811.19043 0.500119
15812.46973 0.50049
15813.75000 0.50086
15815.04004 0.501231
15816.32031 0.501602
15817.59961 0.501973
15818.88965 0.502343
15820.16992 0.502707
15821.45020 0.503022
15822.74023 0.503338
15824.01953 0.503653
15825.29980 0.504028
15826.58984 0.504421
15827.87012 0.504814
15829.16016 0.505207
15830.44043 0.5056
15831.71973 0.505993
15833.00977 0.506386
15834.29004 0.506779
15835.58008 0.507171
15836.86035 0.507563
15838.15039 0.507956
15839.42969 0.508348
15840.71973 0.50874
15842.00000 0.509132
15843.29004 0.509525
15844.57031 0.509881
15845.86035 0.510087
15847.13965 0.510293
15848.42969 0.510499
15849.70996 0.510705
15851.00000 0.510955
15852.29004 0.511217
15853.57031 0.511479
15854.86035 0.511741
15856.13965 0.512003
15857.42969 0.512266
15858.71973 0.512528
15860.00000 0.51279
15861.29004 0.512996
15862.58008 0.513201
15863.86035 0.513407
15865.15039 0.513031
15866.44043 0.51232
15867.71973 0.51161
15869.00977 0.5109
15870.29980 0.510189
15871.58984 0.509479
15872.87012 0.50877
15874.16016 0.508059
15875.45020 0.50735
15876.74023 0.506641
15878.01953 0.505931
15879.30957 0.505221
15880.59961 0.504512
15881.88965 0.503803
15883.17969 0.503094
15884.46973 0.502206
15885.75000 0.499682
15887.04004 0.497161
15888.33008 0.494639
15889.62012 0.492117
15890.91016 0.489634
15892.20020 0.487167
15893.49023 0.4847
15894.78027 0.482234
15896.07031 0.479765
15897.36035 0.477299
15898.65039 0.47483
15899.94043 0.472364
15901.23047 0.469846
15902.51953 0.467327
15903.80957 0.464807
15905.09961 0.460852
15906.38965 0.455868
15907.67969 0.450883
15908.96973 0.445902
15910.25977 0.440918
15911.54980 0.43594
15912.83984 0.430959
15914.12988 0.42598
15915.41992 0.421001
15916.70996 0.416024
15918.00000 0.411048
15919.29004 0.40607
15920.58984 0.401097
15921.87988 0.396121
15923.16992 0.39115
15924.45996 0.386054
15925.75000 0.379671
15927.04004 0.37329
15928.33984 0.366911
15929.62988 0.360533
15930.91992 0.354157
15932.20996 0.347777
15933.50977 0.341404
15934.79980 0.335028
15936.08984 0.328658
15937.37988 0.322285
15938.67969 0.315914
15939.96973 0.309544
15941.25977 0.303209
15942.55957 0.296875
15943.84961 0.290536
15945.13965 0.284384
15946.44043 0.278346
15947.73047 0.272312
15949.01953 0.266274
15950.32031 0.260229
15951.61035 0.254164
15952.91016 0.248099
15954.20020 0.242037
15955.49023 0.235971
15956.79004 0.229911
15958.08008 0.223848
15959.37988 0.217792
15960.66992 0.211732
15961.96973 0.205674
15963.25977 0.199618
15964.55957 0.193788
15965.84961 0.189223
15967.15039 0.184659
15968.44043 0.180092
15969.74023 0.17553
15971.03027 0.170966
15972.33008 0.166406
15973.62012 0.161844
15974.91992 0.157283
15976.21973 0.152724
15977.50977 0.148165
15978.80957 0.143605
15980.09961 0.139049
15981.40039 0.134494
15982.70020 0.129937
15983.99023 0.125381
15985.29004 0.121931
15986.58984 0.118925
15987.87988 0.115919
15989.17969 0.112915
15990.48047 0.109913
15991.78027 0.106921
15993.07031 0.10393
15994.37012 0.100936
15995.66992 0.097945
15996.95996 0.094952
15998.25977 0.091959
15999.55957 0.088965
16000.86035 0.085966
16002.16016 0.082965
16003.45996 0.079962
16004.75000 0.077277
16006.04980 0.075352
16007.34961 0.073425
16008.65039 0.071499
16009.95020 0.069573
16011.25000 0.067648
16012.54004 0.065723
16013.83984 0.063798
16015.13965 0.061875
16016.44043 0.059951
16017.74023 0.058027
16019.04004 0.056104
16020.33984 0.054181
16021.63965 0.052258
16022.94043 0.050335
16024.24023 0.048413
16025.54004 0.04717
16026.83984 0.046006
16028.13965 0.044843
16029.44043 0.04368
16030.74023 0.042517
16032.04004 0.041355
16033.33984 0.040192
16034.63965 0.03903
16035.94043 0.037868
16037.24023 0.036706
16038.54004 0.035545
16039.84961 0.034383
16041.15039 0.033222
16042.45020 0.032061
16043.75000 0.0309
16045.04980 0.029974
16046.34961 0.02927
16047.65039 0.028566
16048.95996 0.027862
16050.25977 0.027159
16051.55957 0.026458
16052.86035 0.025757
16054.16016 0.025056
16055.46973 0.024355
16056.76953 0.023655
16058.07031 0.022954
16059.37012 0.022253
16060.67969 0.021551
16061.98047 0.020847
16063.28027 0.020144
16064.58984 0.019483
16065.88965 0.019054
16067.19043 0.018626
16068.50000 0.018197
16069.79980 0.017769
16071.09961 0.017341
16072.41016 0.016912
16073.70996 0.016484
16075.00977 0.016056
16076.32031 0.015629
16077.62012 0.0152
16078.92969 0.014773
16080.23047 0.014345
16081.54004 0.013917
16082.83984 0.01349
16084.15039 0.013062
16085.45020 0.012754
16086.75000 0.012475
16088.05957 0.012195
16089.37012 0.011916
16090.66992 0.011636
16091.98047 0.011357
16093.28027 0.011077
16094.58984 0.010798
16095.88965 0.010519
16097.20020 0.01024
16098.50000 0.00996
16099.80957 0.009681
16101.12012 0.009402
16102.41992 0.009123
16103.73047 0.008844
16105.03027 0.008615
16106.33984 0.008438
16107.65039 0.008261
16108.95020 0.008084
16110.25977 0.007907
16111.57031 0.00773
16112.87012 0.007553
16114.17969 0.007377
16115.49023 0.0072
16116.79980 0.007023
16118.09961 0.006846
16119.41016 0.00667
16120.71973 0.006493
16122.03027 0.006316
16123.33008 0.00614
16124.63965 0.005973
16125.95020 0.00585
16127.25977 0.005727
16128.57031 0.005603
16129.87988 0.00548
16131.17969 0.005357
16132.49023 0.005234
16133.79980 0.005111
16135.11035 0.004988
16136.41992 0.004865
16137.73047 0.004742
16139.04004 0.004619
16140.34961 0.004496
16141.66016 0.004374
16142.96973 0.004251
16144.28027 0.004128
16145.58008 0.004042
16146.88965 0.00396
16148.20020 0.003878
16149.50977 0.003796
16150.82031 0.003715
16152.12988 0.003634
16153.44043 0.003552
16154.75000 0.003471
16156.07031 0.00339
16157.37988 0.003308
16158.69043 0.003227
16160.00000 0.003146
16161.30957 0.003064
16162.62012 0.002982
16163.92969 0.0029
16165.24023 0.002838
16166.54980 0.002788
16167.87012 0.002737
16169.17969 0.002686
16170.49023 0.002635
16171.79980 0.002585
16173.11035 0.002534
16174.41992 0.002483
16175.74023 0.002432
16177.04980 0.002382
16178.36035 0.002331
16179.66992 0.00228
16180.99023 0.00223
16182.29980 0.002179
16183.61035 0.002128
16184.91992 0.002083
16186.24023 0.002046
16187.54980 0.002009
16188.86035 0.001971
16190.17969 0.001934
16191.49023 0.001897
16192.79980 0.00186
16194.12012 0.001823
16195.42969 0.001786
16196.74023 0.001748
16198.05957 0.001711
16199.37012 0.001674
16200.69043 0.001637
16202.00000 0.0016
16203.32031 0.001563
16204.62988 0.001527
16205.94043 0.001502
16207.25977 0.001477
16208.57031 0.001452
16209.88965 0.001427
16211.20020 0.001402
16212.51953 0.001377
16213.83008 0.001352
16215.15039 0.001327
16216.45996 0.001302
16217.78027 0.001277
16219.09961 0.001252
16220.41016 0.001227
16221.73047 0.001202
16223.04004 0.001177
16224.36035 0.001152
16225.67969 0.00113
16226.99023 0.001109
16228.30957 0.001087
16229.62012 0.001066
16230.94043 0.001044
16232.25977 0.001022
16233.57031 0.001001
16234.88965 0.000979
16236.20996 0.000958
16237.53027 0.000936
16238.83984 0.000914
16240.16016 0.000893
16241.48047 0.000871
16242.79004 0.00085
16244.11035 0.000828
16245.42969 0.000815
16246.75000 0.000805
16248.07031 0.000795
16249.37988 0.000785
16250.70020 0.000775
16252.01953 0.000764
16253.33984 0.000754
16254.66016 0.000744
16255.98047 0.000734
16257.29004 0.000724
16258.61035 0.000714
16259.92969 0.000704
16261.25000 0.000693
16262.57031 0.000683
16263.88965 0.000673
16265.20996 0.000662
16266.53027 0.00065
16267.84961 0.000638
16269.16992 0.000625
16270.49023 0.000613
16271.80957 0.000601
16273.12988 0.000589
16274.45020 0.000577
16275.76953 0.000565
16277.08984 0.000553
16278.41016 0.000541
16279.73047 0.000529
16281.04980 0.000517
16282.37012 0.000504
16283.69043 0.000492
16285.00977 0.000485
16286.33008 0.000482
16287.66016 0.00048
16288.98047 0.000478
16290.29980 0.000476
16291.62012 0.000474
16292.94043 0.000472
16294.25977 0.00047
16295.58008 0.000468
16296.91016 0.000466
16298.23047 0.000464
16299.54980 0.000462
16300.87012 0.00046
16302.20020 0.000458
16303.51953 0.000456
16304.83984 0.000451
16306.16016 0.000441
16307.49023 0.000431
16308.80957 0.000421
16310.12988 0.000411
16311.45996 0.000401
17942.60547 0.0
