# %ECSV 0.9
# ---
# datatype:
# - {name: wavelength, unit: Angstrom, datatype: float32}
# - {name: response, datatype: float32}
# meta: !!omap
# - {band_name: F814W}
# - {group_name: WFC3_UVIS2}
wavelength response
6246.43115 0.0
6940.47900 0.000403
6941.66699 0.000421
6942.85400 0.000448
6944.04199 0.000477
6945.22998 0.000507
6946.41797 0.000536
6947.60693 0.000565
6948.79492 0.000594
6949.98389 0.000624
6951.17285 0.000653
6952.36279 0.000689
6953.55176 0.000735
6954.74219 0.000781
6955.93213 0.000827
6957.12207 0.000872
6958.31299 0.000918
6959.50293 0.000964
6960.69385 0.00101
6961.88477 0.001056
6963.07617 0.001129
6964.26709 0.001203
6965.45801 0.001278
6966.64990 0.001352
6967.84180 0.001426
6969.03516 0.0015
6970.22705 0.001574
6971.41895 0.001648
6972.61182 0.001749
6973.80518 0.001871
6974.99902 0.001993
6976.19189 0.002114
6977.38477 0.002235
6978.57910 0.002357
6979.77295 0.002478
6980.96680 0.0026
6982.16211 0.002737
6983.35596 0.00294
6984.55078 0.003142
6985.74609 0.003344
6986.94092 0.003546
6988.13721 0.003749
6989.33301 0.003951
6990.52783 0.004153
6991.72412 0.004355
6992.91992 0.004676
6994.11719 0.005022
6995.31299 0.005368
6996.50977 0.005714
6997.70801 0.006059
6998.90479 0.006405
7000.10303 0.00675
7001.29980 0.007094
7002.49805 0.007547
7003.69580 0.008122
7004.89404 0.008695
7006.09277 0.009269
7007.29199 0.009842
7008.49023 0.010415
7009.68896 0.010987
7010.88916 0.01156
7012.08789 0.012183
7013.28809 0.013142
7014.48779 0.014101
7015.68799 0.015059
7016.88916 0.016017
7018.08887 0.016975
7019.29004 0.017932
7020.49121 0.018888
7021.69189 0.019842
7022.89307 0.021297
7024.09521 0.022879
7025.29688 0.02446
7026.49902 0.02604
7027.70117 0.027618
7028.90283 0.029196
7030.10596 0.030773
7031.30908 0.03235
7032.51221 0.034355
7033.71484 0.036828
7034.91797 0.0393
7036.12207 0.04177
7037.32617 0.044239
7038.52979 0.046706
7039.73389 0.049172
7040.93799 0.051637
7042.14307 0.054251
7043.34814 0.057613
7044.55322 0.060973
7045.75781 0.06433
7046.96387 0.067686
7048.16895 0.07104
7049.37500 0.074393
7050.58203 0.077739
7051.78809 0.081079
7052.99512 0.085169
7054.20117 0.089366
7055.40820 0.093561
7056.61523 0.097752
7057.82324 0.10194
7059.02979 0.106125
7060.23779 0.110308
7061.44580 0.114498
7062.65381 0.118878
7063.86182 0.123389
7065.07080 0.127899
7066.27979 0.132405
7067.48877 0.136909
7068.69824 0.141411
7069.90820 0.14591
7071.11719 0.150391
7072.32715 0.154673
7073.53711 0.158521
7074.74707 0.162365
7075.95801 0.166208
7077.16797 0.170047
7078.37891 0.173884
7079.58984 0.177716
7080.80176 0.18156
7082.01318 0.185349
7083.22510 0.188052
7084.43701 0.190753
7085.64893 0.193454
7086.86084 0.196152
7088.07422 0.19885
7089.28613 0.201545
7090.50000 0.204231
7091.71191 0.206901
7092.92578 0.208747
7094.13916 0.210386
7095.35303 0.212024
7096.56689 0.213661
7097.78076 0.215297
7098.99609 0.216931
7100.20996 0.218568
7101.42480 0.220223
7102.64014 0.22144
7103.85498 0.222317
7105.07080 0.223192
7106.28613 0.224068
7107.50195 0.224943
7108.71777 0.225817
7109.93506 0.226691
7111.15088 0.227564
7112.36816 0.228269
7113.58398 0.228641
7114.80176 0.229012
7116.01904 0.229384
7117.23584 0.229755
7118.45410 0.230126
7119.67188 0.230496
7120.89014 0.230849
7122.10791 0.231163
7123.32715 0.231247
7124.54590 0.231332
7125.76514 0.231416
7126.98389 0.2315
7128.20410 0.231584
7129.42285 0.231667
7130.64307 0.231764
7131.86279 0.231873
7133.08301 0.231877
7134.30420 0.231872
7135.52393 0.231867
7136.74512 0.231861
7137.96582 0.231856
7139.18799 0.231851
7140.40918 0.231837
7141.62988 0.231807
7142.85303 0.231722
7144.07520 0.231616
7145.29688 0.23151
7146.52002 0.231404
7147.74219 0.231298
7148.96484 0.231193
7150.18799 0.231091
7151.41211 0.23101
7152.63477 0.230916
7153.85889 0.230811
7155.08301 0.230707
7156.30713 0.230602
7157.53076 0.230497
7158.75586 0.230392
7159.98096 0.230288
7161.20605 0.230159
7162.43115 0.230017
7163.65723 0.229853
7164.88184 0.229689
7166.10791 0.229525
7167.33398 0.229361
7168.56104 0.229198
7169.78711 0.229034
7171.01416 0.228891
7172.24121 0.228747
7173.46777 0.228587
7174.69482 0.228428
7175.92285 0.228268
7177.14990 0.228108
7178.37793 0.227948
7179.60596 0.227789
7180.83496 0.227629
7182.06299 0.227467
7183.29199 0.227276
7184.52100 0.227086
7185.75000 0.226895
7186.97998 0.226705
7188.20996 0.226515
7189.43896 0.226324
7190.66992 0.226121
7191.89990 0.225906
7193.12988 0.225687
7194.36084 0.225467
7195.59180 0.225248
7196.82324 0.225028
7198.05518 0.224809
7199.28613 0.22459
7200.51807 0.224381
7201.75000 0.224186
7202.98193 0.223985
7204.21387 0.223783
7205.44678 0.223581
7206.68018 0.223379
7207.91309 0.223176
7209.14600 0.222974
7210.37891 0.222765
7211.61279 0.222539
7212.84717 0.222326
7214.08105 0.222119
7215.31494 0.221912
7216.54980 0.221705
7217.78516 0.221498
7219.02002 0.221292
7220.25488 0.22109
7221.49023 0.220907
7222.72607 0.220724
7223.96094 0.220539
7225.19678 0.220354
7226.43408 0.22017
7227.66992 0.219985
7228.90723 0.219801
7230.14404 0.219613
7231.37988 0.219394
7232.61816 0.219201
7233.85498 0.219032
7235.09277 0.218863
7236.33105 0.218694
7237.56885 0.218526
7238.80713 0.218358
7240.04492 0.21819
7241.28418 0.218045
7242.52295 0.217914
7243.76221 0.217799
7245.00195 0.217685
7246.24121 0.21757
7247.48096 0.217456
7248.72119 0.217342
7249.96094 0.217227
7251.20215 0.21709
7252.44189 0.216972
7253.68311 0.21689
7254.92383 0.216807
7256.16602 0.216724
7257.40723 0.216642
7258.64893 0.216559
7259.89111 0.216476
7261.13281 0.216415
7262.37500 0.216359
7263.61816 0.216307
7264.85986 0.216256
7266.10400 0.216204
7267.34717 0.216153
7268.58984 0.216102
7269.83398 0.21605
7271.07812 0.215999
7272.32178 0.215963
7273.56592 0.215974
7274.81104 0.215984
7276.05518 0.215994
7277.29980 0.216004
7278.54492 0.216014
7279.79102 0.216024
7281.03613 0.216014
7282.28223 0.216002
7283.52783 0.215997
7284.77393 0.215992
7286.02002 0.215986
7287.26709 0.215981
7288.51416 0.215975
7289.76123 0.21597
7291.00781 0.215983
7292.25488 0.216009
7293.50293 0.21607
7294.75098 0.216131
7295.99902 0.216191
7297.24707 0.216251
7298.49609 0.216311
7299.74512 0.216372
7300.99414 0.216413
7302.24316 0.216449
7303.49219 0.216484
7304.74219 0.216518
7305.99121 0.216553
7307.24121 0.216587
7308.49219 0.216622
7309.74219 0.216656
7310.99316 0.216709
7312.24414 0.216772
7313.49512 0.216852
7314.74609 0.216932
7315.99805 0.217012
7317.24902 0.217092
7318.50098 0.217172
7319.75293 0.217252
7321.00586 0.217312
7322.25781 0.217368
7323.51123 0.217424
7324.76416 0.21748
7326.01709 0.217536
7327.27100 0.217592
7328.52393 0.217647
7329.77783 0.217703
7331.03223 0.217778
7332.28711 0.217854
7333.54102 0.217919
7334.79590 0.217983
7336.05078 0.218048
7337.30615 0.218112
7338.56201 0.218176
7339.81689 0.21824
7341.07324 0.218283
7342.32910 0.218325
7343.58496 0.218369
7344.84082 0.218414
7346.09814 0.218458
7347.35498 0.218502
7348.61182 0.218546
7349.86914 0.21859
7351.12695 0.218656
7352.38477 0.21871
7353.64307 0.218732
7354.90088 0.218753
7356.15918 0.218774
7357.41797 0.218796
7358.67676 0.218817
7359.93604 0.218838
7361.19482 0.218836
7362.45410 0.218827
7363.71387 0.218805
7364.97412 0.218784
7366.23389 0.218762
7367.49414 0.218741
7368.75488 0.21872
7370.01611 0.218698
7371.27588 0.218701
7372.53809 0.218685
7373.79883 0.218641
7375.06104 0.218598
7376.32324 0.218554
7377.58398 0.21851
7378.84717 0.218466
7380.10889 0.21842
7381.37207 0.218352
7382.63477 0.218275
7383.89795 0.218187
7385.16211 0.218099
7386.42480 0.218011
7387.68896 0.217923
7388.95312 0.217835
7390.21680 0.217751
7391.48096 0.217687
7392.74609 0.217616
7394.01123 0.217539
7395.27588 0.217462
7396.54199 0.217385
7397.80713 0.217308
7399.07324 0.217231
7400.33789 0.217147
7401.60400 0.217046
7402.87109 0.216895
7404.13818 0.216718
7405.40381 0.21654
7406.67090 0.216363
7407.93799 0.216186
7409.20605 0.216009
7410.47412 0.215841
7411.74219 0.215688
7413.00977 0.215539
7414.27783 0.215391
7415.54688 0.215243
7416.81494 0.215095
7418.08398 0.214948
7419.35400 0.2148
7420.62305 0.21464
7421.89307 0.214469
7423.16309 0.21426
7424.43311 0.214045
7425.70312 0.213832
7426.97314 0.213618
7428.24414 0.213404
7429.51514 0.213191
7430.78613 0.213001
7432.05811 0.212826
7433.32910 0.212649
7434.60107 0.212473
7435.87305 0.212297
7437.14502 0.212122
7438.41699 0.211946
7439.68994 0.21177
7440.96289 0.211576
7442.23584 0.211376
7443.50977 0.211168
7444.78320 0.210961
7446.05713 0.210754
7447.33105 0.210547
7448.60498 0.21034
7449.87891 0.210134
7451.15381 0.209948
7452.42920 0.209766
7453.70410 0.209585
7454.97900 0.209405
7456.25488 0.209224
7457.53076 0.209044
7458.80713 0.208863
7460.08301 0.208681
7461.35889 0.208477
7462.63623 0.208274
7463.91309 0.208072
7465.18896 0.20787
7466.46680 0.207669
7467.74414 0.207467
7469.02197 0.207265
7470.29980 0.207069
7471.57812 0.206891
7472.85596 0.206708
7474.13477 0.206523
7475.41406 0.206338
7476.69189 0.206152
7477.97217 0.205967
7479.25098 0.205782
7480.53076 0.205587
7481.81104 0.205378
7483.09082 0.205226
7484.37109 0.205087
7485.65186 0.204948
7486.93311 0.204809
7488.21289 0.20467
7489.49512 0.204531
7490.77588 0.204406
7492.05811 0.204291
7493.33887 0.204167
7494.62207 0.204042
7495.90381 0.203917
7497.18701 0.203793
7498.46924 0.203668
7499.75195 0.203544
7501.03516 0.203375
7502.31885 0.203206
7503.60205 0.203083
7504.88623 0.20296
7506.16992 0.202837
7507.45508 0.202713
7508.73877 0.20259
7510.02295 0.202468
7511.30908 0.202368
7512.59424 0.202266
7513.87891 0.202161
7515.16504 0.202056
7516.45020 0.201952
7517.73584 0.201847
7519.02197 0.201742
7520.30908 0.201631
7521.59619 0.201504
7522.88281 0.201401
7524.16992 0.201313
7525.45703 0.201224
7526.74512 0.201136
7528.03320 0.201047
7529.32080 0.200959
7530.60889 0.200881
7531.89697 0.200816
7533.18604 0.200766
7534.47510 0.200718
7535.76416 0.20067
7537.05322 0.200622
7538.34277 0.200574
7539.63184 0.200526
7540.92188 0.200461
7542.21289 0.200393
7543.50293 0.200352
7544.79395 0.200311
7546.08398 0.20027
7547.37598 0.200229
7548.66699 0.200188
7549.95801 0.200147
7551.25000 0.200128
7552.54199 0.200119
7553.83398 0.200126
7555.12695 0.200133
7556.41895 0.200141
7557.71191 0.200148
7559.00488 0.200155
7560.29883 0.200156
7561.59180 0.20014
7562.88623 0.20013
7564.18018 0.200123
7565.47412 0.200116
7566.76904 0.200109
7568.06299 0.200102
7569.35791 0.200095
7570.65283 0.2001
7571.94922 0.200116
7573.24414 0.200119
7574.54004 0.20012
7575.83594 0.200122
7577.13184 0.200124
7578.42822 0.200125
7579.72510 0.200126
7581.02197 0.200109
7582.31885 0.200093
7583.61621 0.200105
7584.91406 0.200118
7586.21094 0.200129
7587.50879 0.200141
7588.80811 0.200153
7590.10596 0.200166
7591.40479 0.200201
7592.70410 0.200206
7594.00195 0.20018
7595.30176 0.200152
7596.60205 0.200125
7597.90088 0.200098
7599.20117 0.200071
7600.50098 0.200035
7601.80176 0.199984
7603.10303 0.199966
7604.40283 0.199957
7605.70410 0.199948
7607.00488 0.199938
7608.30713 0.199929
7609.60889 0.199919
7610.91113 0.199909
7612.21289 0.199895
7613.51514 0.19983
7614.81787 0.199766
7616.12109 0.199701
7617.42383 0.199636
7618.72705 0.199572
7620.03076 0.199507
7621.33398 0.199466
7622.63916 0.199411
7623.94287 0.199339
7625.24707 0.199267
7626.55176 0.199195
7627.85596 0.199123
7629.16211 0.199051
7630.46680 0.19896
7631.77197 0.198836
7633.07812 0.198699
7634.38379 0.198557
7635.68994 0.198416
7636.99707 0.198275
7638.30420 0.198134
7639.60986 0.197993
7640.91699 0.197868
7642.22510 0.197747
7643.53223 0.197595
7644.83984 0.197444
7646.14795 0.197293
7647.45605 0.197142
7648.76514 0.196991
7650.07324 0.196839
7651.38184 0.196665
7652.69092 0.196479
7654.00000 0.196278
7655.31006 0.196078
7656.62012 0.195877
7657.93018 0.195677
7659.24023 0.195477
7660.55078 0.195286
7661.86084 0.195109
7663.17188 0.194927
7664.48291 0.194744
7665.79492 0.194562
7667.10596 0.194379
7668.41797 0.194196
7669.72998 0.194014
7671.04199 0.193814
7672.35498 0.193602
7673.66699 0.193359
7674.97998 0.193117
7676.29297 0.192875
7677.60693 0.192633
7678.92090 0.192391
7680.23389 0.192153
7681.54785 0.191935
7682.86279 0.191711
7684.17676 0.191484
7685.49219 0.191257
7686.80713 0.19103
7688.12207 0.190803
7689.43701 0.190577
7690.75293 0.190338
7692.06885 0.190089
7693.38477 0.189848
7694.70117 0.189606
7696.01807 0.189365
7697.33398 0.189125
7698.65088 0.188884
7699.96924 0.188643
7701.28613 0.188403
7702.60400 0.188157
7703.92188 0.1879
7705.24023 0.187643
7706.55811 0.187386
7707.87695 0.18713
7709.19482 0.186873
7710.51514 0.186626
7711.83301 0.186392
7713.15283 0.186167
7714.47314 0.185943
7715.79297 0.18572
7717.11279 0.185498
7718.43311 0.185275
7719.75391 0.185052
7721.07520 0.184812
7722.39600 0.184569
7723.71680 0.184331
7725.03906 0.184093
7726.35986 0.183856
7727.68213 0.183618
7729.00391 0.183381
7730.32715 0.183149
7731.64893 0.182934
7732.97217 0.182721
7734.29492 0.182509
7735.61914 0.182297
7736.94189 0.182085
7738.26611 0.181873
7739.58984 0.181661
7740.91406 0.181434
7742.23779 0.181203
7743.56299 0.180994
7744.88818 0.180786
7746.21289 0.180577
7747.53809 0.180369
7748.86377 0.180161
7750.18896 0.179956
7751.51611 0.179769
7752.84180 0.179595
7754.16797 0.17943
7755.49512 0.179266
7756.82178 0.179102
7758.14893 0.178938
7759.47705 0.178774
7760.80420 0.178597
7762.13184 0.178412
7763.45996 0.178235
7764.78809 0.17806
7766.11719 0.177884
7767.44482 0.177708
7768.77393 0.177533
7770.10400 0.177357
7771.43311 0.177181
7772.76318 0.177023
7774.09277 0.176884
7775.42285 0.176744
7776.75293 0.176605
7778.08301 0.176466
7779.41504 0.176326
7780.74609 0.176199
7782.07715 0.176081
7783.40820 0.175938
7784.74023 0.175793
7786.07178 0.175649
7787.40381 0.175505
7788.73584 0.175361
7790.06885 0.175215
7791.40186 0.17505
7792.73486 0.17491
7794.06787 0.1748
7795.40186 0.17469
7796.73486 0.174581
7798.06885 0.174471
7799.40381 0.174362
7800.73779 0.174264
7802.07324 0.174175
7803.40820 0.174069
7804.74316 0.173962
7806.07812 0.173856
7807.41406 0.173749
7808.75000 0.173642
7810.08496 0.173534
7811.42188 0.173406
7812.75781 0.173305
7814.09521 0.173237
7815.43213 0.173168
7816.76904 0.173099
7818.10596 0.17303
7819.44385 0.172961
7820.78223 0.172905
7822.12012 0.172856
7823.45801 0.172781
7824.79688 0.172705
7826.13623 0.172629
7827.47510 0.172552
7828.81396 0.172476
7830.15283 0.1724
7831.49316 0.172325
7832.83301 0.172248
7834.17285 0.17217
7835.51416 0.172092
7836.85400 0.172014
7838.19482 0.171936
7839.53613 0.171858
7840.87695 0.17178
7842.21924 0.171702
7843.56104 0.171633
7844.90283 0.171565
7846.24512 0.171496
7847.58691 0.171427
7848.93018 0.171357
7850.27295 0.171293
7851.61621 0.171244
7852.95898 0.171186
7854.30322 0.171121
7855.64697 0.171055
7856.99121 0.17099
7858.33496 0.170925
7859.68018 0.17086
7861.02393 0.170778
7862.37012 0.170698
7863.71484 0.170645
7865.06006 0.170593
7866.40576 0.17054
7867.75195 0.170487
7869.09814 0.170435
7870.44385 0.170389
7871.79102 0.170357
7873.13818 0.170287
7874.48486 0.170203
7875.83203 0.170119
7877.18018 0.170035
7878.52686 0.16995
7879.87500 0.169866
7881.22412 0.169763
7882.57178 0.169666
7883.91992 0.169587
7885.27002 0.169509
7886.61914 0.16943
7887.96777 0.169351
7889.31689 0.169272
7890.66699 0.169193
7892.01807 0.169114
7893.36816 0.169005
7894.71777 0.168892
7896.06885 0.168779
7897.41992 0.168666
7898.77100 0.168552
7900.12305 0.168441
7901.47412 0.168349
7902.82617 0.168247
7904.17822 0.168136
7905.53076 0.168024
7906.88281 0.167913
7908.23584 0.167801
7909.58887 0.16769
7910.94189 0.167564
7912.29590 0.167435
7913.64893 0.167332
7915.00293 0.16723
7916.35791 0.167127
7917.71191 0.167024
7919.06689 0.166921
7920.42188 0.166825
7921.77686 0.166743
7923.13184 0.166638
7924.48779 0.166524
7925.84424 0.16641
7927.20020 0.166296
7928.55615 0.166182
7929.91309 0.166068
7931.27002 0.165935
7932.62598 0.165806
7933.98389 0.16569
7935.34082 0.165573
7936.69922 0.165457
7938.05713 0.165341
7939.41504 0.165224
7940.77295 0.165108
7942.13184 0.164992
7943.49121 0.164855
7944.85010 0.164717
7946.20898 0.16458
7947.56885 0.164442
7948.92920 0.164305
7950.28906 0.164171
7951.64893 0.164054
7953.00879 0.163947
7954.37012 0.163845
7955.73096 0.163743
7957.09180 0.163642
7958.45410 0.16354
7959.81494 0.163438
7961.17676 0.163319
7962.53906 0.163197
7963.90088 0.163076
7965.26416 0.162954
7966.62695 0.162832
7967.99023 0.16271
7969.35303 0.162588
7970.71680 0.162467
7972.08105 0.162346
7973.44385 0.162235
7974.80908 0.162126
7976.17285 0.162016
7977.53809 0.161907
7978.90283 0.161798
7980.26807 0.161692
7981.63281 0.161605
7982.99902 0.161508
7984.36523 0.161405
7985.73096 0.161302
7987.09717 0.161199
7988.46387 0.161096
7989.83105 0.160992
7991.19678 0.160875
7992.56494 0.160755
7993.93213 0.160635
7995.29980 0.160515
7996.66797 0.160395
7998.03613 0.160275
7999.40381 0.160156
8000.77295 0.160044
8002.14209 0.159938
8003.51123 0.159858
8004.87988 0.159778
8006.25000 0.159698
8007.62012 0.159619
8008.99023 0.159539
8010.35986 0.159455
8011.73096 0.159358
8013.10205 0.159264
8014.47314 0.159172
8015.84424 0.15908
8017.21484 0.158987
8018.58691 0.158895
8019.95898 0.158803
8021.33105 0.158712
8022.70410 0.158616
8024.07617 0.158512
8025.44922 0.158408
8026.82178 0.158304
8028.19482 0.1582
8029.56885 0.158096
8030.94287 0.158008
8032.31689 0.157929
8033.69092 0.157878
8035.06592 0.157826
8036.43994 0.157775
8037.81494 0.157723
8039.19092 0.157672
8040.56592 0.157612
8041.94189 0.157541
8043.31787 0.157428
8044.69385 0.157305
8046.06982 0.157182
8047.44678 0.157059
8048.82422 0.156936
8050.20117 0.156813
8051.57812 0.15669
8052.95605 0.156597
8054.33301 0.15653
8055.71191 0.156462
8057.08984 0.156394
8058.46924 0.156326
8059.84717 0.156258
8061.22705 0.156208
8062.60498 0.156145
8063.98486 0.156043
8065.36523 0.155942
8066.74512 0.155841
8068.12500 0.15574
8069.50488 0.155638
8070.88623 0.155525
8072.26709 0.155404
8073.64795 0.15529
8075.02881 0.155176
8076.41113 0.155063
8077.79199 0.154949
8079.17480 0.154835
8080.55713 0.154722
8081.93896 0.154608
8083.32178 0.154486
8084.70605 0.154363
8086.08887 0.154239
8087.47217 0.154115
8088.85596 0.153992
8090.24023 0.153871
8091.62402 0.153767
8093.00781 0.153649
8094.39307 0.153519
8095.77783 0.15339
8097.16309 0.15326
8098.54785 0.153131
8099.93408 0.153001
8101.31982 0.152854
8102.70605 0.152705
8104.09180 0.152557
8105.47900 0.152409
8106.86621 0.152262
8108.25293 0.152114
8109.64014 0.151966
8111.02783 0.151818
8112.41602 0.151669
8113.80322 0.151503
8115.19092 0.151338
8116.58008 0.151173
8117.96924 0.151008
8119.35791 0.150843
8120.74707 0.150689
8122.13623 0.150544
8123.52588 0.150382
8124.91602 0.15022
8126.30615 0.150057
8127.69580 0.149895
8129.08691 0.149733
8130.47803 0.149564
8131.86914 0.149383
8133.25977 0.149183
8134.65186 0.148977
8136.04297 0.148771
8137.43604 0.148565
8138.82812 0.148359
8140.22021 0.148154
8141.61279 0.147948
8143.00586 0.147748
8144.39893 0.147551
8145.79297 0.147355
8147.18701 0.147159
8148.58105 0.146963
8149.97510 0.146767
8151.36914 0.14659
8152.76416 0.146417
8154.15918 0.146251
8155.55420 0.146084
8156.94922 0.145918
8158.34521 0.145752
8159.74121 0.145586
8161.13721 0.145404
8162.53320 0.145211
8163.93018 0.144986
8165.32617 0.144761
8166.72314 0.144536
8168.12109 0.144311
8169.51807 0.144087
8170.91602 0.143862
8172.31396 0.143638
8173.71191 0.143416
8175.11084 0.143194
8176.50879 0.142972
8177.90820 0.14275
8179.30811 0.142528
8180.70703 0.142316
8182.10596 0.142113
8183.50586 0.141927
8184.90723 0.141743
8186.30713 0.141559
8187.70801 0.141375
8189.10791 0.141192
8190.50977 0.141001
8191.91113 0.1408
8193.31152 0.140593
8194.71484 0.140384
8196.11621 0.140176
8197.51855 0.139967
8198.92090 0.139759
8200.32422 0.139552
8201.72754 0.139347
8203.13086 0.139152
8204.53418 0.138964
8205.93848 0.138776
8207.34180 0.138588
8208.74609 0.138401
8210.15039 0.138215
8211.55469 0.138045
8212.95996 0.137875
8214.36523 0.137703
8215.77148 0.137532
8217.17676 0.13736
8218.58203 0.137189
8219.98828 0.137018
8221.39453 0.136829
8222.80176 0.13665
8224.20801 0.136484
8225.61523 0.136319
8227.02246 0.136154
8228.43066 0.135989
8229.83789 0.135824
8231.24609 0.135668
8232.65430 0.135518
8234.06348 0.135376
8235.47168 0.135234
8236.88086 0.135092
8238.29004 0.13495
8239.70020 0.134808
8241.10938 0.13468
8242.51953 0.134563
8243.92969 0.134474
8245.34082 0.134386
8246.75098 0.134297
8248.16211 0.134209
8249.57324 0.13412
8250.98438 0.13402
8252.39648 0.133913
8253.80859 0.133806
8255.22070 0.133699
8256.63281 0.133591
8258.04590 0.133484
8259.45898 0.133377
8260.87207 0.133269
8262.28516 0.133162
8263.69922 0.133066
8265.11230 0.13297
8266.52637 0.132874
8267.94141 0.132778
8269.35547 0.132681
8270.77148 0.132595
8272.18555 0.132516
8273.60059 0.132467
8275.01660 0.13242
8276.43262 0.132373
8277.84863 0.132326
8279.26465 0.132279
8280.68164 0.132223
8282.09766 0.132159
8283.51465 0.132095
8284.93262 0.132031
8286.34961 0.131967
8287.76758 0.131903
8289.18555 0.131838
8290.60352 0.131774
8292.02246 0.13171
8293.44141 0.131682
8294.86035 0.131662
8296.27930 0.131642
8297.69824 0.131622
8299.11816 0.131601
8300.53809 0.131581
8301.95801 0.13156
8303.37891 0.131517
8304.79980 0.131467
8306.22070 0.131417
8307.64160 0.131366
8309.06152 0.131316
8310.48438 0.131272
8311.90625 0.131239
8313.32812 0.13123
8314.75098 0.13123
8316.17383 0.13123
8317.59668 0.13123
8319.01953 0.131229
8320.44238 0.131224
8321.86621 0.131206
8323.29004 0.131195
8324.71387 0.131187
8326.13867 0.131179
8327.56348 0.131171
8328.98828 0.131163
8330.41309 0.131155
8331.83789 0.131146
8333.26367 0.131145
8334.68945 0.131148
8336.11523 0.13115
8337.54199 0.131152
8338.96875 0.131154
8340.39648 0.13116
8341.82227 0.131179
8343.24902 0.13119
8344.67676 0.131198
8346.10352 0.131205
8347.53223 0.131212
8348.96094 0.131219
8350.38965 0.131222
8351.81836 0.131211
8353.24707 0.131194
8354.67578 0.131174
8356.10547 0.131154
8357.53516 0.131134
8358.96484 0.131113
8360.39648 0.131093
8361.82617 0.131072
8363.25684 0.131055
8364.68652 0.13104
8366.11816 0.131024
8367.54980 0.131009
8368.98145 0.130993
8370.41309 0.130977
8371.84570 0.130961
8373.27832 0.130946
8374.71094 0.130932
8376.14355 0.130918
8377.57617 0.130904
8379.00977 0.130889
8380.44336 0.13088
8381.87695 0.130882
8383.31152 0.130873
8384.74609 0.130857
8386.18066 0.130842
8387.61523 0.130827
8389.04980 0.130811
8390.48535 0.130789
8391.92090 0.130756
8393.35742 0.130717
8394.79297 0.130675
8396.22852 0.130633
8397.66602 0.130591
8399.10254 0.130549
8400.54004 0.130512
8401.97656 0.130483
8403.41406 0.130426
8404.85254 0.130361
8406.29004 0.130296
8407.72852 0.13023
8409.16699 0.130165
8410.60547 0.130107
8412.04492 0.130059
8413.48438 0.130018
8414.92383 0.129979
8416.36328 0.129939
8417.80371 0.1299
8419.24316 0.12986
8420.68457 0.129812
8422.12500 0.129754
8423.56543 0.129671
8425.00684 0.129583
8426.44824 0.129495
8427.89062 0.129408
8429.33203 0.12932
8430.77441 0.129241
8432.21680 0.12917
8433.65918 0.129087
8435.10254 0.129002
8436.54590 0.128918
8437.98926 0.128833
8439.43262 0.128749
8440.87695 0.128664
8442.32129 0.128579
8443.76562 0.128466
8445.20996 0.128354
8446.65527 0.128241
8448.10059 0.128128
8449.54590 0.128015
8450.99121 0.127914
8452.43652 0.12782
8453.88379 0.127741
8455.33008 0.127662
8456.77637 0.127584
8458.22363 0.127505
8459.67090 0.127426
8461.11816 0.127334
8462.56543 0.127238
8464.01367 0.127139
8465.46191 0.127041
8466.91016 0.126942
8468.35840 0.126844
8469.80762 0.126745
8471.25684 0.126647
8472.70605 0.12654
8474.15527 0.126412
8475.60547 0.126284
8477.05566 0.126156
8478.50586 0.126027
8479.95703 0.125899
8481.40723 0.125771
8482.85840 0.12557
8484.31055 0.125241
8485.76172 0.124912
8487.21387 0.124584
8488.66602 0.124256
8490.11816 0.123929
8491.57031 0.123619
8493.02344 0.123396
8494.47656 0.123271
8495.92969 0.123145
8497.38379 0.12302
8498.83789 0.122894
8500.29199 0.122759
8501.74609 0.122586
8503.20020 0.122435
8504.65527 0.122297
8506.11035 0.12216
8507.56543 0.122023
8509.02148 0.121885
8510.47754 0.121748
8511.93359 0.121611
8513.38965 0.121421
8514.84668 0.121211
8516.30273 0.121001
8517.76074 0.12079
8519.21777 0.120581
8520.67480 0.120371
8522.13281 0.120161
8523.59082 0.120024
8525.04980 0.119899
8526.50781 0.119774
8527.96680 0.119649
8529.42578 0.119523
8530.88574 0.119408
8532.34473 0.119299
8533.80469 0.119158
8535.26465 0.119017
8536.72559 0.118875
8538.18555 0.118734
8539.64648 0.118593
8541.10742 0.118439
8542.56934 0.118282
8544.03027 0.11813
8545.49219 0.117978
8546.95410 0.117825
8548.41699 0.117673
8549.87988 0.117521
8551.34277 0.117369
8552.80566 0.117222
8554.26855 0.117087
8555.73242 0.116951
8557.19629 0.116816
8558.66016 0.116681
8560.12500 0.116545
8561.58887 0.11641
8563.05371 0.116273
8564.51953 0.116134
8565.98438 0.115995
8567.45020 0.115856
8568.91602 0.115717
8570.38184 0.115582
8571.84863 0.115459
8573.31543 0.115353
8574.78223 0.115256
8576.24902 0.115159
8577.71582 0.115062
8579.18359 0.114964
8580.65137 0.11486
8582.12012 0.114747
8583.58789 0.114613
8585.05664 0.114475
8586.52539 0.114337
8587.99512 0.114199
8589.46387 0.114062
8590.93359 0.113924
8592.40332 0.113788
8593.87402 0.113709
8595.34375 0.113631
8596.81445 0.113552
8598.28516 0.113473
8599.75684 0.113394
8601.22754 0.113315
8602.69922 0.113232
8604.17188 0.113134
8605.64355 0.113037
8607.11621 0.112939
8608.58887 0.112842
8610.06152 0.112745
8611.53418 0.112663
8613.00781 0.112583
8614.48145 0.112505
8615.95605 0.112427
8617.42969 0.112349
8618.90430 0.11227
8620.37891 0.112188
8621.85352 0.112094
8623.32910 0.112008
8624.80469 0.111927
8626.28027 0.111846
8627.75586 0.111764
8629.23242 0.111682
8630.70801 0.111617
8632.18457 0.111568
8633.66211 0.111522
8635.13867 0.111477
8636.61621 0.111432
8638.09375 0.111386
8639.57227 0.11134
8641.05078 0.111294
8642.52832 0.111253
8644.00781 0.111248
8645.48633 0.111243
8646.96582 0.111238
8648.44531 0.111233
8649.92480 0.111227
8651.40430 0.111222
8652.88477 0.1112
8654.36523 0.111147
8655.84570 0.111094
8657.32715 0.111042
8658.80859 0.110989
8660.29004 0.110938
8661.77148 0.110901
8663.25391 0.110891
8664.73535 0.110899
8666.21777 0.110907
8667.70117 0.110915
8669.18359 0.110923
8670.66699 0.110924
8672.15039 0.110915
8673.63477 0.110892
8675.11816 0.110867
8676.60254 0.11084
8678.08691 0.110814
8679.57227 0.110788
8681.05664 0.110761
8682.54199 0.110734
8684.02832 0.110706
8685.51367 0.110677
8687.00000 0.110648
8688.48633 0.110619
8689.97266 0.11059
8691.45898 0.110561
8692.94629 0.110527
8694.43359 0.110485
8695.92090 0.110444
8697.40918 0.110401
8698.89746 0.110359
8700.38574 0.110317
8701.87402 0.110275
8703.36328 0.110221
8704.85254 0.11016
8706.34180 0.1101
8707.83105 0.110039
8709.32129 0.109978
8710.81055 0.109926
8712.30176 0.10988
8713.79199 0.109879
8715.28320 0.109881
8716.77441 0.109882
8718.26562 0.109882
8719.75684 0.109883
8721.24902 0.109871
8722.74121 0.109844
8724.23340 0.109782
8725.72656 0.109719
8727.21875 0.109656
8728.71191 0.109593
8730.20605 0.109529
8731.69922 0.109466
8733.19336 0.109421
8734.68848 0.109393
8736.18164 0.109364
8737.67676 0.109335
8739.17188 0.109306
8740.66699 0.109277
8742.16211 0.109248
8743.65820 0.109218
8745.15430 0.109189
8746.65039 0.10916
8748.14648 0.10913
8749.64355 0.1091
8751.14062 0.10907
8752.63770 0.109033
8754.13574 0.108957
8755.63281 0.108882
8757.13086 0.108807
8758.62988 0.108731
8760.12793 0.108657
8761.62695 0.108597
8763.12598 0.10854
8764.62500 0.108488
8766.12500 0.108436
8767.62500 0.108383
8769.12500 0.10833
8770.62500 0.108271
8772.12598 0.108202
8773.62695 0.108113
8775.12793 0.10802
8776.62891 0.107927
8778.13086 0.107834
8779.63281 0.107741
8781.13477 0.107647
8782.63770 0.107559
8784.13965 0.1075
8785.64258 0.107442
8787.14648 0.107383
8788.64941 0.107324
8790.15332 0.107265
8791.65723 0.107206
8793.16113 0.107128
8794.66602 0.107032
8796.17090 0.106936
8797.67578 0.10684
8799.18066 0.106743
8800.68652 0.106637
8802.19238 0.106519
8803.69824 0.106391
8805.20410 0.106261
8806.71094 0.106131
8808.21777 0.106001
8809.72461 0.105871
8811.23145 0.105754
8812.73926 0.105644
8814.24707 0.105551
8815.75488 0.105459
8817.26367 0.105366
8818.77246 0.105273
8820.28125 0.105177
8821.79004 0.105069
8823.29980 0.104943
8824.80957 0.104805
8826.31934 0.104667
8827.82910 0.104528
8829.33984 0.10439
8830.85059 0.104266
8832.36133 0.104153
8833.87207 0.104068
8835.38379 0.103984
8836.89648 0.103899
8838.40723 0.103815
8839.91992 0.10373
8841.43164 0.103645
8842.94434 0.103547
8844.45801 0.103424
8845.97070 0.1033
8847.48438 0.103176
8848.99805 0.103052
8850.51172 0.102928
8852.02637 0.102804
8853.54102 0.102696
8855.05566 0.102594
8856.57129 0.102493
8858.08594 0.102391
8859.60156 0.102289
8861.11719 0.102187
8862.63379 0.102085
8864.15039 0.101985
8865.66699 0.101886
8867.18359 0.101786
8868.70020 0.101686
8870.21777 0.101588
8871.73535 0.101503
8873.25391 0.101406
8874.77148 0.101297
8876.29004 0.101189
8877.80859 0.10108
8879.32812 0.100972
8880.84668 0.100855
8882.36621 0.100731
8883.88574 0.100629
8885.40625 0.100529
8886.92676 0.100428
8888.44727 0.100327
8889.96777 0.100226
8891.48828 0.100125
8893.00977 0.10002
8894.53125 0.099909
8896.05371 0.099798
8897.57520 0.099687
8899.09766 0.099575
8900.62012 0.099464
8902.14355 0.099352
8903.66602 0.099239
8905.18945 0.099126
8906.71289 0.099013
8908.23730 0.098899
8909.76172 0.098785
8911.28613 0.098672
8912.81055 0.098556
8914.33496 0.098436
8915.86035 0.098315
8917.38574 0.098195
8918.91211 0.098074
8920.43848 0.097953
8921.96387 0.097832
8923.49023 0.097727
8925.01758 0.09763
8926.54395 0.097532
8928.07129 0.097434
8929.59863 0.097336
8931.12695 0.097238
8932.65527 0.097138
8934.18359 0.09703
8935.71191 0.096922
8937.24023 0.096813
8938.76953 0.096704
8940.29883 0.096598
8941.82910 0.096504
8943.35840 0.096409
8944.88867 0.096315
8946.41895 0.09622
8947.95020 0.096125
8949.48047 0.09603
8951.01172 0.095925
8952.54395 0.095815
8954.07520 0.09571
8955.60742 0.095604
8957.13965 0.095497
8958.67188 0.095391
8960.20508 0.095285
8961.73828 0.095178
8963.27148 0.095073
8964.80469 0.094968
8966.33887 0.094863
8967.87305 0.094758
8969.40723 0.094653
8970.94141 0.094548
8972.47656 0.094443
8974.01172 0.094355
8975.54688 0.094266
8977.08301 0.094178
8978.61816 0.094089
8980.15527 0.094
8981.69141 0.093911
8983.22754 0.093815
8984.76465 0.093713
8986.30176 0.093611
8987.83984 0.093509
8989.37793 0.093407
8990.91602 0.093304
8992.45410 0.093201
8993.99219 0.093103
8995.53125 0.093005
8997.07031 0.092906
8998.60938 0.092808
9000.14941 0.092709
9001.68945 0.092613
9003.22852 0.092517
9004.76953 0.092424
9006.31055 0.09233
9007.85156 0.092237
9009.39258 0.092143
9010.93359 0.092058
9012.47559 0.091978
9014.01758 0.091904
9015.55957 0.091829
9017.10254 0.091755
9018.64648 0.09168
9020.18848 0.091604
9021.73145 0.091515
9023.27539 0.091421
9024.81934 0.091321
9026.36328 0.091221
9027.90723 0.09112
9029.45215 0.09102
9030.99707 0.090925
9032.54199 0.090835
9034.08789 0.090761
9035.63281 0.090687
9037.17871 0.090613
9038.72559 0.090538
9040.27148 0.090464
9041.81836 0.09039
9043.36523 0.090314
9044.91309 0.090236
9046.45996 0.090158
9048.00781 0.09008
9049.55664 0.090002
9051.10352 0.089923
9052.65332 0.089845
9054.20215 0.089762
9055.75098 0.089679
9057.30078 0.089596
9058.85059 0.089513
9060.40039 0.08943
9061.95020 0.089347
9063.50098 0.08927
9065.05176 0.089197
9066.60254 0.089123
9068.15332 0.089049
9069.70508 0.088975
9071.25684 0.088901
9072.80859 0.088825
9074.36133 0.088744
9075.91406 0.088663
9077.46680 0.088582
9079.01953 0.088501
9080.57324 0.088425
9082.12695 0.088357
9083.68066 0.088289
9085.23535 0.08822
9086.78906 0.088151
9088.34375 0.088082
9089.89941 0.088013
9091.45410 0.087931
9093.00977 0.087854
9094.56543 0.087786
9096.12109 0.087717
9097.67773 0.087649
9099.23438 0.08758
9100.79102 0.087512
9102.34863 0.087443
9103.90527 0.087355
9105.46289 0.087266
9107.02148 0.087177
9108.57910 0.087087
9110.13770 0.086998
9111.69629 0.086908
9113.25586 0.086825
9114.81445 0.086749
9116.37402 0.086672
9117.93359 0.086596
9119.49414 0.086519
9121.05469 0.086442
9122.61523 0.086365
9124.17578 0.086282
9125.73633 0.0862
9127.29785 0.086117
9128.85938 0.086035
9130.42188 0.085952
9131.98340 0.085869
9133.54590 0.085787
9135.10938 0.085705
9136.67188 0.085623
9138.23535 0.085541
9139.79883 0.085459
9141.36230 0.085377
9142.92676 0.085293
9144.49121 0.085204
9146.05566 0.085115
9147.62012 0.085026
9149.18555 0.084936
9150.75098 0.084847
9152.31641 0.084757
9153.88184 0.084664
9155.44824 0.084571
9157.01465 0.084478
9158.58203 0.084384
9160.14844 0.08429
9161.71582 0.084197
9163.28320 0.084103
9164.85156 0.084009
9166.41895 0.083916
9167.98730 0.083822
9169.55566 0.083728
9171.12500 0.083634
9172.69434 0.08354
9174.26367 0.083448
9175.83301 0.083355
9177.40332 0.083263
9178.97363 0.08317
9180.54395 0.083081
9182.11426 0.083001
9183.68555 0.082914
9185.25684 0.082823
9186.82812 0.082733
9188.40039 0.082642
9189.97266 0.082551
9191.54492 0.082447
9193.11719 0.082342
9194.69043 0.082236
9196.26367 0.082129
9197.83691 0.082022
9199.41016 0.081915
9200.98438 0.081803
9202.55859 0.081688
9204.13281 0.081578
9205.70801 0.081468
9207.28320 0.081359
9208.85840 0.081249
9210.43359 0.081139
9212.00977 0.081029
9213.58594 0.080909
9215.16211 0.080784
9216.73926 0.080659
9218.31543 0.080534
9219.89258 0.080409
9221.47070 0.080284
9223.04785 0.080156
9224.62598 0.080023
9226.20410 0.07989
9227.78320 0.079756
9229.36230 0.079623
9230.94141 0.079492
9232.52148 0.079364
9234.09961 0.079242
9235.67969 0.079119
9237.25977 0.078997
9238.84082 0.078874
9240.42090 0.078752
9242.00195 0.078629
9243.58301 0.078503
9245.16504 0.078377
9246.74707 0.07825
9248.32910 0.078123
9249.91113 0.077996
9251.49414 0.077869
9253.07715 0.07774
9254.66016 0.077607
9256.24316 0.077475
9257.82715 0.077342
9259.41113 0.077209
9260.99512 0.077077
9262.58008 0.076944
9264.16406 0.076807
9265.74902 0.07667
9267.33496 0.076533
9268.91992 0.076396
9270.50586 0.076259
9272.09277 0.076122
9273.67871 0.075988
9275.26562 0.075857
9276.85254 0.075725
9278.43945 0.075594
9280.02734 0.075462
9281.61523 0.07533
9283.20312 0.075196
9284.79102 0.075058
9286.37988 0.07492
9287.96875 0.074782
9289.55762 0.074644
9291.14746 0.074506
9292.73633 0.074369
9294.32715 0.07424
9295.91699 0.074111
9297.50781 0.073981
9299.09863 0.073852
9300.68945 0.073728
9302.28027 0.07361
9303.87207 0.073491
9305.46387 0.073372
9307.05566 0.073253
9308.64844 0.073134
9310.24121 0.073012
9311.83398 0.072881
9313.42676 0.07275
9315.02148 0.07262
9316.61426 0.07249
9318.20801 0.07236
9319.80273 0.072229
9321.39746 0.072098
9322.99219 0.07197
9324.58691 0.071845
9326.18262 0.07172
9327.77832 0.071596
9329.37402 0.071471
9330.97070 0.071346
9332.56738 0.071221
9334.16406 0.071108
9335.76074 0.070995
9337.35840 0.070882
9338.95605 0.070769
9340.55371 0.070656
9342.15137 0.070542
9343.75000 0.070426
9345.34863 0.07031
9346.94727 0.070193
9348.54688 0.070076
9350.14648 0.069958
9351.74609 0.069841
9353.34570 0.069727
9354.94629 0.069616
9356.54688 0.069505
9358.14746 0.069394
9359.74902 0.069283
9361.35059 0.069171
9362.95215 0.069061
9364.55371 0.068956
9366.15625 0.06885
9367.75879 0.068744
9369.36133 0.068637
9370.96484 0.068531
9372.56738 0.068424
9374.17188 0.068324
9375.77539 0.068224
9377.37988 0.068124
9378.98340 0.068024
9380.58887 0.067923
9382.19336 0.067822
9383.79883 0.06772
9385.40430 0.067618
9387.00977 0.067515
9388.61621 0.067413
9390.22266 0.06731
9391.82910 0.067207
9393.43555 0.067103
9395.04297 0.067
9396.65039 0.066896
9398.25781 0.066792
9399.86621 0.066688
9401.47461 0.066574
9403.08301 0.066458
9404.69141 0.066343
9406.30078 0.066228
9407.91016 0.066112
9409.51953 0.065997
9411.12988 0.065881
9412.74023 0.065764
9414.35059 0.065641
9415.96094 0.065519
9417.57227 0.065396
9419.18359 0.065273
9420.79492 0.065149
9422.40723 0.065026
9424.01953 0.064893
9425.63184 0.064758
9427.24414 0.064624
9428.85742 0.064489
9430.47070 0.064357
9432.08398 0.064229
9433.69727 0.064092
9435.31152 0.063952
9436.92578 0.063811
9438.54102 0.06367
9440.15527 0.063529
9441.77148 0.063389
9443.38574 0.063242
9445.00195 0.063088
9446.61816 0.062935
9448.23438 0.062782
9449.85059 0.062629
9451.46777 0.062476
9453.08496 0.062318
9454.70215 0.062153
9456.31934 0.061987
9457.93848 0.061821
9459.55566 0.061655
9461.17383 0.061489
9462.79297 0.061322
9464.41211 0.061145
9466.03125 0.060968
9467.65137 0.06079
9469.27148 0.060614
9470.89062 0.060437
9472.51172 0.06026
9474.13184 0.06007
9475.75293 0.059879
9477.37402 0.059689
9478.99609 0.059498
9480.61719 0.059308
9482.23926 0.059118
9483.86230 0.058919
9485.48438 0.058718
9487.10742 0.058516
9488.73047 0.058315
9490.35352 0.058115
9491.97754 0.057914
9493.60156 0.057709
9495.22656 0.057501
9496.85059 0.057294
9498.47559 0.057087
9500.10059 0.056882
9501.72656 0.056706
9503.35156 0.056527
9504.97754 0.056343
9506.60352 0.056159
9508.23047 0.055975
9509.85742 0.055791
9511.48438 0.055608
9513.11230 0.05542
9514.73926 0.055225
9516.36719 0.05503
9517.99609 0.054835
9519.62402 0.05464
9521.25293 0.054445
9522.88184 0.05425
9524.51172 0.054046
9526.14062 0.053843
9527.77148 0.05364
9529.40137 0.053438
9531.03125 0.053236
9532.66211 0.053033
9534.29297 0.052789
9535.92480 0.052545
9537.55566 0.052302
9539.18848 0.052059
9540.81934 0.051817
9542.45215 0.051575
9544.08496 0.051277
9545.71777 0.050973
9547.35059 0.050669
9548.98438 0.050366
9550.61816 0.050064
9552.25195 0.049762
9553.88672 0.049399
9555.52148 0.049018
9557.15625 0.048639
9558.79102 0.04826
9560.42676 0.047883
9562.06152 0.047506
9563.69824 0.04703
9565.33496 0.046504
9566.97168 0.045979
9568.60840 0.045455
9570.24512 0.044933
9571.88281 0.044413
9573.52148 0.043785
9575.15820 0.043069
9576.79688 0.042355
9578.43555 0.041643
9580.07422 0.040934
9581.71289 0.040227
9583.35254 0.039471
9584.99219 0.038653
9586.63184 0.037838
9588.27246 0.037025
9589.91309 0.036216
9591.55371 0.035409
9593.19434 0.034556
9594.83594 0.033614
9596.47754 0.032676
9598.12012 0.03174
9599.76172 0.030809
9601.40430 0.029883
9603.04688 0.028939
9604.69043 0.027933
9606.33301 0.026931
9607.97656 0.025932
9609.62109 0.024936
9611.26465 0.023939
9612.90918 0.02296
9614.55371 0.022073
9616.19922 0.021189
9617.84473 0.020309
9619.49023 0.019433
9621.13574 0.018564
9622.78223 0.017707
9624.42871 0.016947
9626.07520 0.016191
9627.72168 0.015438
9629.36914 0.014688
9631.01660 0.013941
9632.66504 0.013198
9634.31152 0.012567
9635.96094 0.011938
9637.60938 0.011312
9639.25879 0.010689
9640.90820 0.010068
9642.55762 0.00945
9644.20703 0.008995
9645.85742 0.00855
9647.50781 0.008107
9649.15820 0.007667
9650.80957 0.007228
9652.45996 0.006791
9654.11230 0.006454
9655.76367 0.006131
9657.41602 0.00581
9659.06836 0.00549
9660.72070 0.005171
9662.37402 0.004854
9664.02637 0.004599
9665.68066 0.004357
9667.33398 0.004116
9668.98828 0.003876
9670.64258 0.003637
9672.29688 0.003399
9673.95215 0.003221
9675.60645 0.00306
9677.26270 0.002899
9678.91797 0.002739
9680.57422 0.00258
9682.23047 0.002422
9683.88672 0.002299
9685.54395 0.002189
9687.20117 0.002079
9688.85840 0.001969
9690.51660 0.00186
9692.17383 0.001752
9693.83203 0.001662
9695.49121 0.001581
9697.14941 0.001499
9698.80859 0.001418
9700.46875 0.001338
9702.12793 0.001258
9703.78809 0.001193
9705.44824 0.001135
9707.10840 0.001077
9708.76953 0.00102
9710.43066 0.000963
9712.09180 0.000906
9713.75391 0.000861
9715.41602 0.000822
9717.07812 0.000783
9718.74023 0.000744
9720.40332 0.000705
9722.06641 0.000666
9723.72852 0.000635
9725.39355 0.000607
9727.05762 0.000579
9728.72168 0.000551
9730.38672 0.000524
9732.05078 0.000497
9733.71582 0.000473
9735.38184 0.000451
9737.04688 0.00043
9738.71289 0.000409
10712.58398 0.0
