# %ECSV 0.9
# ---
# datatype:
# - {name: wavelength, unit: Angstrom, datatype: float32}
# - {name: response, datatype: float32}
# meta: !!omap
# - {band_name: G102}
# - {group_name: WFC3_IR}
wavelength response
7199.81006 0.0
7999.78906 0.013753
8000.18408 0.072344
8000.57910 0.072476
8000.97412 0.072609
8001.36914 0.072742
8001.76416 0.072875
8002.15918 0.073008
8002.55420 0.073104
8002.94922 0.073197
8003.34424 0.073289
8003.73877 0.073382
8004.13379 0.073474
8004.52979 0.073567
8004.92480 0.073659
8005.31982 0.073752
8005.71484 0.073845
8006.10986 0.073937
8006.50586 0.07403
8006.90088 0.074122
8007.29590 0.074215
8007.69092 0.074308
8008.08691 0.0744
8008.48193 0.074493
8008.87793 0.074586
8009.27295 0.074679
8009.66797 0.074771
8010.06396 0.074864
8010.45898 0.074957
8010.85498 0.075051
8011.25000 0.075144
8011.64600 0.075237
8012.04199 0.07533
8012.43701 0.075424
8012.83301 0.075517
8013.22803 0.07561
8013.62402 0.075704
8014.02002 0.075797
8014.41504 0.07589
8014.81104 0.075984
8015.20703 0.076077
8015.60205 0.076171
8015.99805 0.076264
8016.39404 0.076358
8016.79004 0.076451
8017.18506 0.076545
8017.58105 0.076638
8017.97705 0.076732
8018.37305 0.076825
8018.76904 0.076919
8019.16504 0.077013
8019.56104 0.077106
8019.95703 0.0772
8020.35303 0.077294
8020.74902 0.077388
8021.14502 0.077482
8021.54102 0.077576
8021.93701 0.07767
8022.33301 0.077764
8022.72900 0.077857
8023.12500 0.077952
8023.52100 0.078046
8023.91699 0.07814
8024.31299 0.078234
8024.70898 0.078328
8025.10498 0.078422
8025.50098 0.078516
8025.89795 0.07861
8026.29395 0.078704
8026.68994 0.078799
8027.08594 0.078893
8027.48291 0.078987
8027.87891 0.079081
8028.27490 0.079176
8028.67188 0.07927
8029.06787 0.079364
8029.46484 0.079459
8029.86084 0.079553
8030.25684 0.079647
8030.65381 0.079741
8031.04980 0.079835
8031.44678 0.07993
8031.84277 0.080024
8032.24023 0.080118
8032.63721 0.080212
8033.03320 0.080306
8033.43018 0.0804
8033.82617 0.080495
8034.22314 0.080589
8034.62012 0.080683
8035.01611 0.080777
8035.41309 0.080872
8035.81006 0.080966
8036.20703 0.08106
8036.60303 0.081155
8037.00000 0.081249
8037.39697 0.081344
8037.79297 0.081438
8038.18994 0.081532
8038.58691 0.081627
8038.98389 0.081721
8039.38086 0.081816
8039.77783 0.08191
8040.17480 0.082005
8040.57178 0.0821
8040.96924 0.082194
8041.36621 0.082289
8041.76318 0.082383
8042.16016 0.082478
8042.55713 0.082573
8042.95410 0.082668
8043.35107 0.082762
8043.74805 0.082857
8044.14502 0.082952
8044.54199 0.083047
8044.93896 0.083142
8045.33691 0.083236
8045.73389 0.083331
8046.13086 0.083426
8046.52783 0.083521
8046.92578 0.083616
8047.32324 0.083711
8047.72021 0.083806
8048.11816 0.083901
8048.51514 0.083996
8048.91211 0.084091
8049.31006 0.084186
8049.70703 0.084281
8050.10400 0.084376
8050.50195 0.084471
8050.89893 0.084566
8051.29688 0.084661
8051.69385 0.084757
8052.09180 0.084852
8052.48877 0.084947
8052.88721 0.085042
8053.28516 0.085138
8053.68213 0.085233
8054.08008 0.085328
8054.47803 0.085423
8054.87500 0.085519
8055.27197 0.085614
8055.66992 0.08571
8056.06787 0.085805
8056.46582 0.0859
8056.86377 0.085996
8057.26123 0.086091
8057.65918 0.086187
8058.05713 0.086282
8058.45508 0.086378
8058.85303 0.086473
8059.25000 0.086569
8059.64795 0.086664
8060.04590 0.08676
8060.44385 0.086856
8060.84180 0.086951
8061.24023 0.087047
8061.63818 0.087143
8062.03613 0.087238
8062.43408 0.087334
8062.83203 0.08743
8063.22998 0.087526
8063.62793 0.087621
8064.02588 0.087717
8064.42480 0.087813
8064.82324 0.087909
8065.22119 0.088005
8065.61914 0.0881
8066.01709 0.088196
8066.41602 0.088292
8066.81396 0.088388
8067.21191 0.088484
8067.60986 0.08858
8068.00879 0.088676
8068.40723 0.088772
8068.80518 0.088868
8069.20410 0.088964
8069.60205 0.08906
8070.00000 0.089157
8070.39893 0.089253
8070.79688 0.089349
8071.19580 0.089445
8071.59424 0.089541
8071.99316 0.089637
8072.39111 0.089734
8072.79004 0.08983
8073.18799 0.089926
8073.58691 0.090022
8073.98486 0.090119
8074.38379 0.090215
8074.78320 0.090311
8075.18213 0.090408
8075.58008 0.090504
8075.97900 0.090601
8076.37695 0.090697
8076.77588 0.090793
8077.17480 0.09089
8077.57422 0.090986
8077.97314 0.091083
8078.37207 0.091179
8078.77100 0.091276
8079.16895 0.091372
8079.56787 0.091469
8079.96680 0.091566
8080.36621 0.091662
8080.76514 0.091759
8081.16406 0.091856
8081.56299 0.091952
8081.96094 0.092049
8082.36084 0.092146
8082.75977 0.092243
8083.15918 0.092339
8083.55811 0.092436
8083.95703 0.092533
8084.35596 0.09263
8084.75488 0.092727
8085.15381 0.092824
8085.55420 0.092921
8085.95312 0.093017
8086.35205 0.093114
8086.75098 0.093211
8087.14990 0.093308
8087.54980 0.093405
8087.94922 0.093502
8088.34814 0.093599
8088.74805 0.093697
8089.14697 0.093794
8089.54590 0.093891
8089.94580 0.093988
8090.34521 0.094085
8090.74512 0.094182
8091.14404 0.094279
8091.54297 0.094377
8091.94287 0.094474
8092.34180 0.094571
8092.74219 0.094668
8093.14209 0.094766
8093.54102 0.094863
8093.93994 0.09496
8094.33984 0.095058
8094.74023 0.095155
8095.14014 0.095252
8095.53906 0.09535
8095.93896 0.095447
8096.33789 0.095545
8096.73779 0.095642
8097.13818 0.09574
8097.53809 0.095837
8097.93799 0.095935
8098.33691 0.096032
8098.73682 0.09613
8099.13721 0.096227
8099.53711 0.096325
8099.93701 0.096423
8100.33594 0.09652
8100.73584 0.096618
8101.13623 0.096716
8101.53711 0.096813
8101.93701 0.096911
8102.33594 0.097013
8102.73584 0.097127
8103.13623 0.097241
8103.53711 0.097356
8103.93701 0.09747
8104.33691 0.097584
8104.73682 0.097698
8105.13721 0.097812
8105.53711 0.097926
8105.93799 0.098041
8106.33691 0.098155
8106.73779 0.098269
8107.13818 0.098383
8107.53809 0.098498
8107.93799 0.098612
8108.33887 0.098727
8108.73877 0.098841
8109.13916 0.098955
8109.54004 0.09907
8109.93994 0.099184
8110.33984 0.099299
8110.74121 0.099413
8111.14209 0.099528
8111.54199 0.099643
8111.94189 0.099757
8112.34277 0.099872
8112.74316 0.099986
8113.14404 0.100101
8113.54395 0.100216
8113.94482 0.100331
8114.34619 0.100445
8114.74609 0.10056
8115.14697 0.100675
8115.54688 0.10079
8115.94824 0.100905
8116.34912 0.101019
8116.75000 0.101134
8117.14990 0.101249
8117.55078 0.101364
8117.95215 0.101479
8118.35303 0.101594
8118.75293 0.101709
8119.15381 0.101824
8119.55518 0.101939
8119.95605 0.102054
8120.35693 0.102169
8120.75781 0.102285
8121.15918 0.1024
8121.56006 0.102515
8121.95996 0.10263
8122.36084 0.102745
8122.76318 0.102861
8123.16406 0.102976
8123.56396 0.103091
8123.96582 0.103207
8124.36719 0.103322
8124.76807 0.103437
8125.16895 0.103553
8125.56982 0.103668
8125.97119 0.103784
8126.37305 0.103899
8126.77295 0.104015
8127.17480 0.10413
8127.57617 0.104246
8127.97803 0.104361
8128.37891 0.104477
8128.77979 0.104593
8129.18115 0.104708
8129.58301 0.104824
8129.98389 0.10494
8130.38477 0.105055
8130.78711 0.105171
8131.18799 0.105287
8131.58984 0.105403
8131.99121 0.105519
8132.39307 0.105634
8132.79395 0.10575
8133.19580 0.105866
8133.59717 0.105982
8133.99902 0.106098
8134.39990 0.106214
8134.80176 0.10633
8135.20410 0.106446
8135.60498 0.106562
8136.00684 0.106678
8136.40918 0.106794
8136.81006 0.10691
8137.21191 0.107026
8137.61377 0.107143
8138.01611 0.107259
8138.41699 0.107375
8138.81885 0.107491
8139.22119 0.107607
8139.62305 0.107724
8140.02393 0.10784
8140.42578 0.107956
8140.82812 0.108073
8141.22998 0.108189
8141.63184 0.108306
8142.03418 0.108422
8142.43604 0.108538
8142.83789 0.108655
8143.24023 0.108772
8143.64209 0.108888
8144.04395 0.109005
8144.44580 0.109121
8144.84912 0.109238
8145.25000 0.109354
8145.65283 0.109471
8146.05518 0.109588
8146.45703 0.109704
8146.85889 0.109821
8147.26123 0.109938
8147.66406 0.110055
8148.06592 0.110172
8148.46777 0.110288
8148.87109 0.110405
8149.27295 0.110522
8149.67480 0.110639
8150.07812 0.110756
8150.47998 0.110873
8150.88184 0.11099
8151.28516 0.111107
8151.68701 0.111224
8152.08887 0.111341
8152.49219 0.111458
8152.89502 0.111575
8153.29688 0.111692
8153.70020 0.11181
8154.10205 0.111927
8154.50488 0.112044
8154.90723 0.112161
8155.31006 0.112278
8155.71191 0.112396
8156.11523 0.112513
8156.51807 0.11263
8156.91992 0.112748
8157.32324 0.112865
8157.72607 0.112982
8158.12891 0.1131
8158.53223 0.113217
8158.93408 0.113335
8159.33691 0.113452
8159.74023 0.11357
8160.14307 0.113687
8160.54590 0.113805
8160.94922 0.113922
8161.35205 0.11404
8161.75391 0.114158
8162.15723 0.114275
8162.56104 0.114393
8162.96289 0.114511
8163.36621 0.114629
8163.77002 0.114746
8164.17188 0.114864
8164.57617 0.114982
8164.97900 0.1151
8165.38184 0.115218
8165.78516 0.115336
8166.18799 0.115454
8166.59082 0.115571
8166.99414 0.115689
8167.39697 0.115807
8167.80078 0.115926
8168.20410 0.116044
8168.60693 0.116162
8169.01123 0.11628
8169.41406 0.116398
8169.81689 0.116516
8170.22119 0.116634
8170.62402 0.116752
8171.02686 0.116871
8171.43115 0.116989
8171.83398 0.117107
8172.23779 0.117225
8172.64111 0.117344
8173.04395 0.117462
8173.44824 0.11758
8173.85205 0.117699
8174.25488 0.117817
8174.65918 0.117936
8175.06201 0.118054
8175.46582 0.118172
8175.87012 0.118291
8176.27295 0.11841
8176.67676 0.118528
8177.08105 0.118647
8177.48389 0.118765
8177.88818 0.118884
8178.29199 0.119003
8178.69482 0.119121
8179.09912 0.11924
8179.50293 0.119359
8179.90723 0.119478
8180.31104 0.119604
8180.71484 0.119732
8181.11914 0.11986
8181.52197 0.119989
8181.92578 0.120117
8182.33008 0.120245
8182.73389 0.120374
8183.13818 0.120502
8183.54199 0.120631
8183.94580 0.12076
8184.35107 0.120888
8184.75391 0.121017
8185.15918 0.121146
8185.56299 0.121274
8185.96680 0.121403
8186.37109 0.121532
8186.77490 0.121661
8187.17920 0.12179
8187.58301 0.121919
8187.98779 0.122048
8188.39209 0.122177
8188.79590 0.122307
8189.20117 0.122436
8189.60498 0.122565
8190.00879 0.122694
8190.41406 0.122824
8190.81787 0.122953
8191.22217 0.123082
8191.62598 0.123212
8192.03125 0.123341
8192.43555 0.123471
8192.83984 0.123601
8193.24414 0.12373
8193.64941 0.12386
8194.05371 0.12399
8194.45801 0.124119
8194.86230 0.124249
8195.26758 0.124379
8195.67188 0.124509
8196.07617 0.124639
8196.48145 0.124769
8196.88574 0.124899
8197.29004 0.125029
8197.69531 0.125159
8198.09961 0.125289
8198.50488 0.12542
8198.90918 0.12555
8199.31445 0.12568
8199.71875 0.12581
8200.12402 0.125941
8200.52832 0.12607
8200.93359 0.1262
8201.33789 0.126329
8201.74316 0.126459
8202.14844 0.126588
8202.55273 0.126681
8202.95801 0.12676
8203.36328 0.12684
8203.76855 0.12692
8204.17285 0.126999
8204.57812 0.127079
8204.98340 0.127159
8205.38867 0.127239
8205.79297 0.127318
8206.19824 0.127398
8206.60352 0.127478
8207.00879 0.127558
8207.41406 0.127638
8207.81934 0.127718
8208.22461 0.127798
8208.62988 0.127878
8209.03516 0.127958
8209.44043 0.128038
8209.84570 0.128118
8210.25098 0.128198
8210.65625 0.128278
8211.06152 0.128358
8211.46680 0.128438
8211.87207 0.128518
8212.27734 0.128598
8212.68359 0.128679
8213.08887 0.128759
8213.49414 0.128839
8213.89941 0.128919
8214.30566 0.129
8214.71094 0.12908
8215.11621 0.129161
8215.52148 0.129241
8215.92773 0.129322
8216.33301 0.129402
8216.73926 0.129482
8217.14453 0.129563
8217.54980 0.129643
8217.95605 0.129724
8218.36133 0.129804
8218.76758 0.129885
8219.17285 0.129966
8219.57910 0.130046
8219.98438 0.130127
8220.39062 0.130208
8220.79590 0.130288
8221.20215 0.130369
8221.60840 0.13045
8222.01367 0.130531
8222.41992 0.130611
8222.82617 0.130692
8223.23145 0.130773
8223.63770 0.130854
8224.04395 0.130935
8224.45020 0.131016
8224.85547 0.131097
8225.26172 0.131178
8225.66797 0.131259
8226.07422 0.13134
8226.48047 0.131421
8226.88672 0.131502
8227.29297 0.131583
8227.69922 0.131665
8228.10547 0.131746
8228.51172 0.131827
8228.91797 0.131908
8229.32422 0.13199
8229.73047 0.132071
8230.13672 0.132151
8230.54297 0.132228
8230.94922 0.132306
8231.35547 0.132383
8231.76172 0.132461
8232.16797 0.132538
8232.57422 0.132616
8232.98145 0.132694
8233.38770 0.132771
8233.79395 0.132849
8234.20020 0.132927
8234.60742 0.133004
8235.01367 0.133082
8235.41992 0.13316
8235.82715 0.133238
8236.23340 0.133316
8236.63965 0.133393
8237.04688 0.133471
8237.45312 0.133549
8237.86035 0.133627
8238.26660 0.133705
8238.67383 0.133783
8239.08008 0.133861
8239.48730 0.133939
8239.89355 0.134017
8240.30078 0.134095
8240.70703 0.134173
8241.11426 0.134251
8241.52148 0.134329
8241.92773 0.134407
8242.33496 0.134485
8242.74219 0.134563
8243.14844 0.134641
8243.55566 0.134719
8243.96289 0.134798
8244.37012 0.134876
8244.77637 0.134954
8245.18359 0.135032
8245.59082 0.13511
8245.99805 0.135189
8246.40527 0.135267
8246.81348 0.135346
8247.21973 0.135424
8247.62695 0.135502
8248.03418 0.135581
8248.44141 0.135659
8248.84863 0.135738
8249.25586 0.135816
8249.66309 0.135895
8250.07031 0.135973
8250.47754 0.136051
8250.88477 0.13613
8251.29199 0.136209
8251.69922 0.136287
8252.10645 0.136366
8252.51465 0.136444
8252.92188 0.136523
8253.32910 0.136602
8253.73633 0.13668
8254.14453 0.136759
8254.55176 0.136838
8254.95898 0.136916
8255.36621 0.136995
8255.77441 0.137074
8256.18164 0.137153
8256.58984 0.137232
8256.99707 0.137311
8257.40430 0.137389
8257.81348 0.137468
8258.21973 0.137547
8258.62793 0.137626
8259.03516 0.137705
8259.44336 0.137784
8259.85059 0.137863
8260.25879 0.137942
8260.66699 0.138021
8261.07422 0.1381
8261.48242 0.138179
8261.89062 0.138258
8262.29785 0.138337
8262.70605 0.138417
8263.11426 0.138496
8263.52148 0.138575
8263.92969 0.138654
8264.33789 0.138733
8264.74609 0.138813
8265.15430 0.138892
8265.56348 0.138971
8265.96973 0.13905
8266.37793 0.13913
8266.78613 0.139209
8267.19434 0.139288
8267.60254 0.139368
8268.01074 0.139447
8268.41895 0.139527
8268.82715 0.139606
8269.23535 0.139685
8269.64355 0.139765
8270.05176 0.139844
8270.45996 0.139924
8270.86816 0.140004
8271.27734 0.140083
8271.68555 0.140163
8272.09375 0.140242
8272.50195 0.140322
8272.91016 0.140402
8273.31934 0.140481
8273.72754 0.140561
8274.13574 0.140641
8274.54395 0.14072
8274.95312 0.1408
8275.36133 0.14088
8275.76953 0.14096
8276.17871 0.14104
8276.58691 0.14112
8276.99609 0.1412
8277.40430 0.141279
8277.81348 0.141359
8278.22168 0.141439
8278.63086 0.141519
8279.03906 0.141599
8279.44824 0.141679
8279.85645 0.141759
8280.26562 0.141839
8280.67383 0.141919
8281.08301 0.141999
8281.49219 0.142079
8281.90039 0.142159
8282.30957 0.14224
8282.71875 0.14232
8283.12793 0.1424
8283.53613 0.14248
8283.94531 0.14256
8284.35352 0.142641
8284.76367 0.142721
8285.17285 0.142801
8285.58105 0.142881
8285.99023 0.142962
8286.39941 0.143042
8286.80859 0.143122
8287.21777 0.143203
8287.62695 0.143283
8288.03613 0.143364
8288.44531 0.143444
8288.85352 0.143524
8289.26367 0.143605
8289.67285 0.143685
8290.08203 0.143766
8290.49121 0.143847
8290.90137 0.143927
8291.31055 0.144008
8291.71973 0.144088
8292.12891 0.144169
8292.53809 0.14425
8292.94727 0.14433
8293.35742 0.144411
8293.76660 0.144492
8294.17578 0.144572
8294.58594 0.144653
8294.99512 0.144734
8295.40430 0.144815
8295.81445 0.144896
8296.22363 0.144977
8296.63379 0.145057
8297.04297 0.145138
8297.45215 0.145219
8297.86230 0.1453
8298.27148 0.145381
8298.68164 0.145462
8299.09082 0.145543
8299.50098 0.145624
8299.91113 0.145705
8300.32031 0.145786
8300.73047 0.145867
8301.14062 0.145948
8301.54980 0.146029
8301.95996 0.146111
8302.37012 0.146196
8302.77930 0.146295
8303.18945 0.146396
8303.59961 0.146496
8304.00977 0.146595
8304.41895 0.146695
8304.82910 0.146795
8305.23926 0.146896
8305.64941 0.146996
8306.05957 0.147096
8306.46973 0.147196
8306.87988 0.147296
8307.29004 0.147396
8307.70020 0.147496
8308.11035 0.147597
8308.52148 0.147697
8308.93066 0.147797
8309.34082 0.147897
8309.75098 0.147998
8310.16113 0.148098
8310.57129 0.148199
8310.98145 0.148299
8311.39160 0.148399
8311.80273 0.1485
8312.21289 0.1486
8312.62305 0.148701
8313.03320 0.148801
8313.44434 0.148902
8313.85352 0.149003
8314.26465 0.149103
8314.67578 0.149204
8315.08594 0.149305
8315.49609 0.149405
8315.90723 0.149506
8316.31738 0.149607
8316.72852 0.149708
8317.13867 0.149809
8317.54883 0.149909
8317.95996 0.15001
8318.37012 0.150111
8318.78125 0.150212
8319.19238 0.150313
8319.60254 0.150414
8320.01367 0.150515
8320.42383 0.150616
8320.83496 0.150717
8321.24609 0.150818
8321.65625 0.150919
8322.06738 0.151021
8322.47852 0.151122
8322.88965 0.151223
8323.29980 0.151324
8323.71094 0.151425
8324.12207 0.151527
8324.53320 0.151628
8324.94434 0.151729
8325.35352 0.151831
8325.76562 0.151932
8326.17676 0.152033
8326.58789 0.152135
8326.99902 0.152236
8327.41016 0.152338
8327.82129 0.152439
8328.23242 0.152541
8328.64355 0.152642
8329.05469 0.152744
8329.46582 0.152846
8329.87695 0.152947
8330.28906 0.153049
8330.70020 0.153151
8331.11133 0.153253
8331.52246 0.153354
8331.93359 0.153456
8332.34473 0.153558
8332.75684 0.15366
8333.16797 0.153762
8333.57910 0.153863
8333.99121 0.153966
8334.40234 0.154067
8334.81348 0.154169
8335.22559 0.154272
8335.63672 0.154373
8336.04785 0.154475
8336.45996 0.154578
8336.87109 0.15468
8337.28320 0.154782
8337.69434 0.154884
8338.10645 0.154986
8338.51758 0.155088
8338.92969 0.155191
8339.34082 0.155293
8339.75293 0.155395
8340.16504 0.155498
8340.57617 0.1556
8340.98828 0.155702
8341.40039 0.155805
8341.81152 0.155907
8342.22363 0.15601
8342.63574 0.156112
8343.04785 0.156215
8343.45898 0.156317
8343.87109 0.15642
8344.28320 0.156523
8344.69531 0.156625
8345.10742 0.156728
8345.51953 0.156831
8345.93164 0.156933
8346.34375 0.157036
8346.75488 0.157139
8347.16699 0.157242
8347.57910 0.157344
8347.99121 0.157447
8348.40430 0.15755
8348.81641 0.157653
8349.22852 0.157756
8349.64062 0.157859
8350.05273 0.157962
8350.46484 0.158065
8350.87695 0.158168
8351.28906 0.158271
8351.70215 0.158374
8352.11426 0.158477
8352.52637 0.158581
8352.93848 0.158684
8353.35156 0.158787
8353.76367 0.15889
8354.17578 0.158993
8354.58887 0.159097
8355.00098 0.1592
8355.41309 0.159303
8355.82617 0.159407
8356.23828 0.15951
8356.65137 0.159614
8357.06348 0.159717
8357.47656 0.159821
8357.88867 0.159924
8358.30176 0.160028
8358.71387 0.160131
8359.12695 0.160235
8359.53906 0.160338
8359.95215 0.160442
8360.36523 0.160533
8360.77734 0.160623
8361.19043 0.160713
8361.60352 0.160802
8362.01562 0.160892
8362.42871 0.160982
8362.84180 0.161072
8363.25488 0.161161
8363.66797 0.161251
8364.08008 0.16134
8364.49316 0.16143
8364.90625 0.16152
8365.31934 0.16161
8365.73242 0.1617
8366.14648 0.16179
8366.55859 0.161879
8366.97168 0.161969
8367.38477 0.162059
8367.79785 0.162149
8368.21094 0.162239
8368.62402 0.162328
8369.03711 0.162418
8369.45020 0.162508
8369.86328 0.162598
8370.27637 0.162688
8370.69043 0.162778
8371.10352 0.162868
8371.51660 0.162958
8371.92969 0.163048
8372.34277 0.163137
8372.75684 0.163228
8373.16992 0.163318
8373.58301 0.163407
8373.99707 0.163497
8374.41016 0.163587
8374.82324 0.163677
8375.23730 0.163768
8375.65039 0.163857
8376.06445 0.163948
8376.47754 0.164038
8376.89062 0.164128
8377.30469 0.164218
8377.71777 0.164308
8378.13184 0.164398
8378.54590 0.164488
8378.95898 0.164578
8379.37305 0.164668
8379.78613 0.164758
8380.20020 0.164849
8380.61426 0.164939
8381.02734 0.165029
8381.44141 0.165119
8381.85547 0.165209
8382.26953 0.165299
8382.68262 0.16539
8383.09668 0.16548
8383.51074 0.16557
8383.92480 0.16566
8384.33887 0.165751
8384.75293 0.165841
8385.16602 0.165931
8385.58008 0.166021
8385.99414 0.166112
8386.40820 0.166202
8386.82227 0.166293
8387.23633 0.166383
8387.65039 0.166473
8388.06445 0.166564
8388.47852 0.166654
8388.89258 0.166744
8389.30762 0.166835
8389.72168 0.166925
8390.13574 0.167016
8390.54980 0.167106
8390.96387 0.167196
8391.37793 0.167287
8391.79297 0.167378
8392.20703 0.167468
8392.62109 0.167558
8393.03516 0.167649
8393.45020 0.167739
8393.86426 0.16783
8394.27832 0.16792
8394.69336 0.168011
8395.10742 0.168101
8395.52246 0.168192
8395.93652 0.168283
8396.35156 0.168373
8396.76562 0.168464
8397.18066 0.168554
8397.59473 0.168645
8398.00977 0.168736
8398.42383 0.168826
8398.83887 0.168917
8399.25293 0.169008
8399.66797 0.169098
8400.08301 0.169189
8400.49707 0.169278
8400.91211 0.169367
8401.32715 0.169457
8401.74121 0.169546
8402.15625 0.169635
8402.57129 0.169715
8402.98633 0.169789
8403.40137 0.169863
8403.81543 0.169937
8404.23047 0.170011
8404.64648 0.170085
8405.06055 0.170159
8405.47559 0.170233
8405.89062 0.170307
8406.30566 0.170381
8406.72070 0.170456
8407.13574 0.17053
8407.55078 0.170604
8407.96582 0.170678
8408.38086 0.170752
8408.79590 0.170826
8409.21094 0.1709
8409.62598 0.170974
8410.04199 0.171048
8410.45703 0.171123
8410.87207 0.171197
8411.28711 0.171271
8411.70215 0.171345
8412.11816 0.171419
8412.53320 0.171493
8412.94824 0.171567
8413.36328 0.171642
8413.77930 0.171716
8414.19434 0.17179
8414.61035 0.171864
8415.02539 0.171938
8415.44043 0.172013
8415.85645 0.172087
8416.27148 0.172161
8416.68652 0.172235
8417.10254 0.17231
8417.51855 0.172384
8417.93359 0.172458
8418.34961 0.172532
8418.76562 0.172607
8419.18066 0.172681
8419.59668 0.172755
8420.01172 0.172829
8420.42773 0.172904
8420.84375 0.172978
8421.25977 0.173053
8421.67480 0.173127
8422.09082 0.173201
8422.50684 0.173276
8422.92285 0.17335
8423.33887 0.173425
8423.75391 0.173499
8424.16992 0.173573
8424.58594 0.173648
8425.00195 0.173722
8425.41797 0.173797
8425.83398 0.173871
8426.25000 0.173946
8426.66602 0.17402
8427.08203 0.174094
8427.49805 0.174169
8427.91406 0.174243
8428.33008 0.174318
8428.74609 0.174392
8429.16211 0.174467
8429.57812 0.174541
8429.99512 0.174616
8430.41113 0.17469
8430.82715 0.174765
8431.24316 0.174839
8431.65918 0.174914
8432.07617 0.174989
8432.49219 0.175063
8432.90820 0.175138
8433.32520 0.175212
8433.74121 0.175287
8434.15723 0.175361
8434.57422 0.175436
8434.99023 0.175511
8435.40723 0.175585
8435.82324 0.17566
8436.24023 0.175735
8436.65625 0.175809
8437.07324 0.175884
8437.48926 0.175958
8437.90625 0.176033
8438.32227 0.176108
8438.73926 0.176183
8439.15527 0.176257
8439.57227 0.176332
8439.98926 0.176407
8440.40527 0.176481
8440.82227 0.176556
8441.23926 0.176631
8441.65625 0.176706
8442.07227 0.17678
8442.48926 0.176855
8442.90625 0.17693
8443.32324 0.177005
8443.74023 0.17708
8444.15723 0.177154
8444.57422 0.177229
8444.99023 0.177304
8445.40723 0.177378
8445.82422 0.177453
8446.24121 0.177528
8446.65820 0.177603
8447.07520 0.177678
8447.49219 0.177753
8447.90918 0.177828
8448.32715 0.177903
8448.74414 0.177978
8449.16113 0.178052
8449.57812 0.178127
8449.99512 0.178202
8450.41211 0.178277
8450.83008 0.178352
8451.24707 0.178427
8451.66406 0.178502
8452.08105 0.178577
8452.49902 0.178652
8452.91602 0.178727
8453.33301 0.178802
8453.75098 0.178877
8454.16797 0.178952
8454.58496 0.179027
8455.00293 0.179102
8455.41992 0.179177
8455.83789 0.179252
8456.25488 0.179327
8456.67285 0.179402
8457.08984 0.179477
8457.50781 0.179552
8457.92480 0.179627
8458.34277 0.179702
8458.76074 0.179777
8459.17773 0.179852
8459.59570 0.179927
8460.01367 0.180003
8460.43066 0.180078
8460.84863 0.180153
8461.26660 0.180228
8461.68457 0.180303
8462.10156 0.180378
8462.51953 0.180453
8462.93848 0.180528
8463.35547 0.180604
8463.77344 0.180679
8464.19141 0.180754
8464.60840 0.180829
8465.02637 0.180904
8465.44434 0.18098
8465.86230 0.181055
8466.28027 0.18113
8466.69824 0.181205
8467.11621 0.181281
8467.53418 0.181356
8467.95312 0.181431
8468.37109 0.181506
8468.78906 0.181582
8469.20703 0.181657
8469.62500 0.181732
8470.04297 0.181807
8470.46094 0.181883
8470.87988 0.181958
8471.29785 0.182033
8471.71582 0.182109
8472.13477 0.182184
8472.55273 0.18226
8472.97070 0.182335
8473.38965 0.182411
8473.80762 0.182486
8474.22559 0.182561
8474.64453 0.182637
8475.06348 0.182712
8475.48145 0.182787
8475.89941 0.182863
8476.31836 0.182939
8476.73633 0.183014
8477.15527 0.183089
8477.57324 0.183165
8477.99219 0.18324
8478.41016 0.183316
8478.82910 0.183391
8479.24805 0.183467
8479.66602 0.183542
8480.08496 0.183618
8480.50391 0.183694
8480.92285 0.183769
8481.34082 0.183845
8481.75977 0.18392
8482.17871 0.183996
8482.59766 0.184072
8483.01660 0.184147
8483.43457 0.184223
8483.85352 0.184299
8484.27246 0.184374
8484.69141 0.18445
8485.11035 0.184526
8485.52930 0.184602
8485.94824 0.184677
8486.36719 0.184753
8486.78613 0.184829
8487.20508 0.184905
8487.62402 0.18498
8488.04297 0.185056
8488.46191 0.185132
8488.88184 0.185208
8489.30078 0.185284
8489.71973 0.185359
8490.13867 0.185435
8490.55762 0.185511
8490.97754 0.185587
8491.39648 0.185663
8491.81543 0.185739
8492.23438 0.185815
8492.65430 0.185892
8493.07324 0.185968
8493.49316 0.186044
8493.91211 0.18612
8494.33105 0.186196
8494.75098 0.186272
8495.16992 0.186348
8495.58984 0.186424
8496.00879 0.1865
8496.42871 0.186577
8496.84766 0.186653
8497.26758 0.186729
8497.68652 0.186805
8498.10645 0.186881
8498.52637 0.186957
8498.94531 0.187034
8499.36523 0.18711
8499.78516 0.187186
8500.20410 0.187265
8500.62402 0.187346
8501.04395 0.187427
8501.46387 0.187508
8501.88281 0.187589
8502.30273 0.187671
8502.72266 0.187719
8503.14258 0.187765
8503.56348 0.18781
8503.98242 0.187856
8504.40234 0.187901
8504.82227 0.187947
8505.24219 0.187993
8505.66211 0.188038
8506.08203 0.188084
8506.50195 0.188129
8506.92188 0.188175
8507.34180 0.188221
8507.76172 0.188266
8508.18164 0.188312
8508.60156 0.188357
8509.02148 0.188403
8509.44141 0.188449
8509.86230 0.188494
8510.28223 0.18854
8510.70215 0.188586
8511.12207 0.188632
8511.54297 0.188678
8511.96289 0.188724
8512.38281 0.18877
8512.80371 0.188815
8513.22363 0.188861
8513.64355 0.188907
8514.06445 0.188953
8514.48438 0.188999
8514.90527 0.189045
8515.32520 0.189091
8515.74609 0.189137
8516.16602 0.189183
8516.58691 0.189229
8517.00684 0.189275
8517.42773 0.189321
8517.84766 0.189367
8518.26855 0.189413
8518.68945 0.189459
8519.10938 0.189505
8519.53027 0.189551
8519.95117 0.189597
8520.37109 0.189643
8520.79199 0.189689
8521.21289 0.189735
8521.63379 0.189781
8522.05469 0.189827
8522.47461 0.189873
8522.89648 0.189919
8523.31641 0.189966
8523.73730 0.190012
8524.15820 0.190058
8524.57910 0.190104
8525.00000 0.19015
8525.42090 0.190196
8525.84180 0.190243
8526.26270 0.190289
8526.68359 0.190335
8527.10352 0.190381
8527.52539 0.190427
8527.94629 0.190474
8528.36719 0.19052
8528.78906 0.190566
8529.20996 0.190612
8529.63086 0.190659
8530.05176 0.190705
8530.47266 0.190751
8530.89453 0.190798
8531.31543 0.190844
8531.73633 0.19089
8532.15820 0.190937
8532.57910 0.190983
8533.00000 0.191029
8533.42188 0.191075
8533.84277 0.191122
8534.26465 0.191168
8534.68555 0.191214
8535.10645 0.191261
8535.52832 0.191307
8535.94922 0.191354
8536.37109 0.1914
8536.79297 0.191446
8537.21387 0.191493
8537.63574 0.191539
8538.05664 0.191585
8538.47852 0.191632
8538.90039 0.191678
8539.32129 0.191725
8539.74316 0.191771
8540.16504 0.191814
8540.58691 0.191851
8541.00781 0.191889
8541.42969 0.191926
8541.85156 0.191963
8542.27344 0.192001
8542.69531 0.192038
8543.11719 0.192075
8543.53809 0.192112
8543.95996 0.19215
8544.38184 0.192187
8544.80371 0.192224
8545.22559 0.192262
8545.64746 0.192299
8546.06934 0.192336
8546.49121 0.192374
8546.91309 0.192411
8547.33594 0.192448
8547.75781 0.192486
8548.17969 0.192523
8548.60156 0.19256
8549.02344 0.192597
8549.44531 0.192635
8549.86816 0.192672
8550.29004 0.19271
8550.71191 0.192747
8551.13379 0.192784
8551.55664 0.192822
8551.97852 0.192859
8552.40039 0.192896
8552.82324 0.192934
8553.24512 0.192971
8553.66797 0.193008
8554.08984 0.193046
8554.51172 0.193083
8554.93457 0.19312
8555.35645 0.193158
8555.77930 0.193195
8556.20117 0.193232
8556.62402 0.19327
8557.04688 0.193307
8557.46875 0.193345
8557.89160 0.193382
8558.31348 0.193419
8558.73633 0.193457
8559.15918 0.193494
8559.58203 0.193531
8560.00391 0.193569
8560.42676 0.193606
8560.84961 0.193643
8561.27246 0.193681
8561.69434 0.193718
8562.11719 0.193756
8562.54004 0.193793
8562.96289 0.19383
8563.38574 0.193868
8563.80859 0.193905
8564.23145 0.193942
8564.65430 0.19398
8565.07715 0.194017
8565.50000 0.194055
8565.92285 0.194092
8566.34570 0.19413
8566.76855 0.194167
8567.19141 0.194204
8567.61426 0.194242
8568.03711 0.194279
8568.45996 0.194316
8568.88379 0.194354
8569.30664 0.194391
8569.72852 0.194429
8570.15234 0.194466
8570.57617 0.194504
8570.99902 0.194541
8571.42188 0.194578
8571.84570 0.194616
8572.26855 0.194653
8572.69141 0.194691
8573.11523 0.194728
8573.53809 0.194766
8573.96191 0.194803
8574.38477 0.19484
8574.80762 0.194878
8575.23145 0.194915
8575.65430 0.194953
8576.07812 0.19499
8576.50195 0.195028
8576.92480 0.195065
8577.34863 0.195103
8577.77148 0.19514
8578.19531 0.195177
8578.61914 0.195215
8579.04199 0.195252
8579.46582 0.19529
8579.88965 0.195327
8580.31348 0.195365
8580.73633 0.195402
8581.16016 0.19544
8581.58398 0.195477
8582.00781 0.195515
8582.43164 0.195552
8582.85547 0.19559
8583.27930 0.195627
8583.70312 0.195664
8584.12695 0.195702
8584.54980 0.195739
8584.97363 0.195777
8585.39746 0.195814
8585.82227 0.195852
8586.24609 0.195889
8586.66992 0.195927
8587.09375 0.195964
8587.51758 0.196002
8587.94141 0.196039
8588.36523 0.196077
8588.78906 0.196114
8589.21387 0.196152
8589.63770 0.196189
8590.06152 0.196227
8590.48535 0.196264
8590.91016 0.196302
8591.33398 0.196339
8591.75781 0.196377
8592.18262 0.196414
8592.60645 0.196452
8593.03027 0.196489
8593.45508 0.196527
8593.87891 0.196564
8594.30371 0.196602
8594.72754 0.196639
8595.15234 0.196677
8595.57617 0.196714
8596.00098 0.196752
8596.42480 0.196789
8596.84961 0.196827
8597.27441 0.196864
8597.69824 0.196902
8598.12305 0.196939
8598.54785 0.196977
8598.97168 0.197015
8599.39648 0.197052
8599.82129 0.19709
8600.24609 0.197126
8600.66992 0.197162
8601.09473 0.197199
8601.51953 0.197235
8601.94434 0.197271
8602.36914 0.197307
8602.79395 0.197353
8603.21875 0.197398
8603.64355 0.197443
8604.06836 0.197488
8604.49316 0.197533
8604.91797 0.197579
8605.34277 0.197624
8605.76758 0.197669
8606.19238 0.197714
8606.61719 0.197759
8607.04199 0.197804
8607.46680 0.19785
8607.89160 0.197895
8608.31641 0.19794
8608.74219 0.197985
8609.16699 0.19803
8609.59180 0.198076
8610.01660 0.198121
8610.44238 0.198166
8610.86719 0.198211
8611.29199 0.198257
8611.71777 0.198302
8612.14258 0.198347
8612.56738 0.198392
8612.99316 0.198437
8613.41797 0.198483
8613.84375 0.198528
8614.26855 0.198573
8614.69434 0.198618
8615.11914 0.198663
8615.54492 0.198709
8615.96973 0.198754
8616.39648 0.198799
8616.82031 0.198844
8617.24609 0.19889
8617.67188 0.198935
8618.09668 0.19898
8618.52246 0.199025
8618.94824 0.199071
8619.37305 0.199116
8619.79883 0.199161
8620.22461 0.199206
8620.65039 0.199251
8621.07617 0.199297
8621.50098 0.199342
8621.92676 0.199387
8622.35254 0.199432
8622.77832 0.199478
8623.20410 0.199523
8623.62988 0.199568
8624.05566 0.199613
8624.48145 0.199659
8624.90723 0.199704
8625.33301 0.199749
8625.75879 0.199795
8626.18457 0.19984
8626.61035 0.199885
8627.03613 0.19993
8627.46289 0.199976
8627.88867 0.200021
8628.31445 0.200066
8628.74023 0.200111
8629.16602 0.200157
8629.59277 0.200202
8630.01855 0.200248
8630.44434 0.200306
8630.87012 0.200365
8631.29688 0.200423
8631.72266 0.200482
8632.14941 0.20054
8632.57520 0.200599
8633.00098 0.200657
8633.42773 0.200715
8633.85352 0.200774
8634.28027 0.200832
8634.70605 0.200891
8635.13281 0.200949
8635.55859 0.201008
8635.98535 0.201067
8636.41211 0.201125
8636.83789 0.201183
8637.26465 0.201242
8637.69043 0.201301
8638.11719 0.201359
8638.54395 0.201418
8638.97070 0.201477
8639.39648 0.201535
8639.82324 0.201594
8640.25000 0.201652
8640.67676 0.201711
8641.10352 0.20177
8641.52930 0.201828
8641.95605 0.201887
8642.38281 0.201945
8642.80957 0.202004
8643.23633 0.202063
8643.66309 0.202122
8644.08984 0.20218
8644.51660 0.202239
8644.94336 0.202298
8645.37012 0.202356
8645.79688 0.202415
8646.22363 0.202474
8646.65039 0.202532
8647.07812 0.202591
8647.50488 0.20265
8647.93164 0.202709
8648.35840 0.202767
8648.78516 0.202826
8649.21289 0.202885
8649.63965 0.202944
8650.06641 0.203003
8650.49316 0.203061
8650.92090 0.20312
8651.34766 0.203179
8651.77441 0.203238
8652.20215 0.203297
8652.62891 0.203356
8653.05664 0.203414
8653.48340 0.203473
8653.91113 0.203532
8654.33789 0.203591
8654.76562 0.20365
8655.19238 0.203709
8655.62012 0.203768
8656.04688 0.203827
8656.47461 0.203885
8656.90234 0.203945
8657.32910 0.204003
8657.75684 0.204062
8658.18457 0.204121
8658.61133 0.20418
8659.03906 0.204239
8659.46680 0.204298
8659.89453 0.204357
8660.32129 0.204416
8660.74902 0.204475
8661.17676 0.204534
8661.60352 0.204593
8662.03223 0.204652
8662.45996 0.204711
8662.88770 0.20477
8663.31543 0.204829
8663.74316 0.204888
8664.17090 0.204948
8664.59863 0.205007
8665.02637 0.205066
8665.45410 0.205125
8665.88184 0.205184
8666.30957 0.205243
8666.73730 0.205302
8667.16504 0.205361
8667.59277 0.20542
8668.02148 0.20548
8668.44922 0.205539
8668.87695 0.205598
8669.30469 0.205657
8669.73340 0.205716
8670.16113 0.205775
8670.58887 0.205835
8671.01758 0.205894
8671.44531 0.205953
8671.87305 0.206012
8672.30176 0.206071
8672.72852 0.206131
8673.15820 0.20619
8673.58594 0.206249
8674.01465 0.206309
8674.44238 0.206368
8674.87109 0.206427
8675.29883 0.206486
8675.72754 0.206546
8676.15527 0.206605
8676.58398 0.206664
8677.01270 0.206724
8677.44043 0.206783
8677.86914 0.206842
8678.29785 0.206901
8678.72656 0.206961
8679.15430 0.20702
8679.58301 0.20708
8680.01172 0.207139
8680.44043 0.207198
8680.86914 0.207258
8681.29688 0.207317
8681.72559 0.207376
8682.15430 0.207436
8682.58301 0.207495
8683.01172 0.207555
8683.44043 0.207614
8683.86914 0.207674
8684.29785 0.207733
8684.72656 0.207793
8685.15527 0.207852
8685.58398 0.207912
8686.01270 0.207971
8686.44238 0.208031
8686.87109 0.20809
8687.29980 0.20815
8687.72852 0.208209
8688.15723 0.208269
8688.58594 0.208328
8689.01562 0.208388
8689.44434 0.208447
8689.87305 0.208507
8690.30273 0.208566
8690.73145 0.208626
8691.16016 0.208686
8691.58984 0.208745
8692.01855 0.208805
8692.44824 0.208865
8692.87695 0.208924
8693.30566 0.208984
8693.73535 0.209043
8694.16504 0.209103
8694.59375 0.209163
8695.02344 0.209222
8695.45215 0.209282
8695.88184 0.209342
8696.31055 0.209401
8696.74023 0.209461
8697.16992 0.209521
8697.59863 0.209581
8698.02832 0.20964
8698.45801 0.2097
8698.88770 0.20976
8699.31641 0.209819
8699.74609 0.209879
8700.17578 0.209939
8700.60547 0.209999
8701.03516 0.210059
8701.46484 0.210118
8701.89453 0.210178
8702.32324 0.210238
8702.75293 0.210297
8703.18262 0.210357
8703.61230 0.210416
8704.04199 0.210476
8704.47168 0.210535
8704.90137 0.210594
8705.33203 0.210654
8705.76172 0.210713
8706.19141 0.210773
8706.62109 0.210832
8707.05078 0.210892
8707.48047 0.210951
8707.91113 0.211011
8708.34082 0.21107
8708.77148 0.21113
8709.20020 0.21119
8709.63086 0.211249
8710.06055 0.211309
8710.49023 0.211368
8710.92090 0.211428
8711.35059 0.211487
8711.78027 0.211547
8712.21094 0.211607
8712.64062 0.211666
8713.07129 0.211726
8713.50098 0.211785
8713.93164 0.211845
8714.36133 0.211905
8714.79199 0.211964
8715.22168 0.212024
8715.65234 0.212084
8716.08301 0.212144
8716.51270 0.212203
8716.94336 0.212263
8717.37402 0.212323
8717.80371 0.212382
8718.23438 0.212442
8718.66504 0.212502
8719.09570 0.212561
8719.52539 0.212621
8719.95605 0.212681
8720.38672 0.212779
8720.81738 0.212882
8721.24805 0.212985
8721.67871 0.213088
8722.10938 0.213191
8722.54004 0.213294
8722.97070 0.213397
8723.40137 0.213501
8723.83203 0.213604
8724.26270 0.213707
8724.69336 0.21381
8725.12402 0.213914
8725.55469 0.214017
8725.98535 0.21412
8726.41602 0.214224
8726.84668 0.214327
8727.27832 0.214431
8727.70898 0.214534
8728.13965 0.214638
8728.57031 0.214741
8729.00195 0.214845
8729.43262 0.214949
8729.86328 0.215053
8730.29395 0.215156
8730.72559 0.21526
8731.15625 0.215364
8731.58789 0.215468
8732.01855 0.215572
8732.45020 0.215676
8732.88086 0.21578
8733.31348 0.215884
8733.74316 0.215988
8734.17480 0.216092
8734.60547 0.216196
8735.03711 0.216301
8735.46777 0.216405
8735.89941 0.216509
8736.33105 0.216614
8736.76172 0.216718
8737.19336 0.216822
8737.62500 0.216927
8738.05566 0.217031
8738.48730 0.217136
8738.91895 0.217241
8739.35059 0.217345
8739.78223 0.21745
8740.21289 0.217554
8740.64453 0.217659
8741.07617 0.217764
8741.50781 0.217869
8741.93945 0.217974
8742.37109 0.218079
8742.80273 0.218184
8743.23438 0.218289
8743.66602 0.218393
8744.09766 0.218499
8744.52930 0.218604
8744.96094 0.218709
8745.39258 0.218814
8745.82422 0.218919
8746.25684 0.219025
8746.68848 0.21913
8747.12012 0.219235
8747.55176 0.219341
8747.98340 0.219446
8748.41602 0.219552
8748.84766 0.219657
8749.27930 0.219763
8749.71191 0.219868
8750.14355 0.219974
8750.57520 0.22008
8751.00781 0.220185
8751.43945 0.220291
8751.87109 0.220397
8752.30371 0.220503
8752.73535 0.220608
8753.16797 0.220715
8753.59961 0.22082
8754.03223 0.220926
8754.46484 0.221033
8754.89648 0.221138
8755.32910 0.221245
8755.76074 0.221351
8756.19336 0.221457
8756.62598 0.221563
8757.05762 0.221669
8757.49023 0.221776
8757.92285 0.221882
8758.35547 0.221989
8758.78711 0.222095
8759.21973 0.222202
8759.65234 0.222308
8760.08496 0.222415
8760.51758 0.222521
8760.95020 0.222628
8761.38281 0.222735
8761.81445 0.222841
8762.24707 0.222948
8762.67969 0.223055
8763.11230 0.223162
8763.54492 0.223269
8763.97754 0.223376
8764.41113 0.223483
8764.84375 0.22359
8765.27637 0.223697
8765.70898 0.223804
8766.14160 0.223911
8766.57422 0.224018
8767.00684 0.224125
8767.44043 0.224233
8767.87305 0.22434
8768.30566 0.224447
8768.73828 0.224554
8769.17188 0.224662
8769.60352 0.224769
8770.03711 0.224877
8770.47070 0.224985
8770.90332 0.225092
8771.33691 0.2252
8771.76953 0.225307
8772.20312 0.225415
8772.63574 0.225523
8773.06934 0.225631
8773.50195 0.225739
8773.93555 0.225847
8774.36816 0.225954
8774.80176 0.226062
8775.23438 0.22617
8775.66797 0.226278
8776.10156 0.226386
8776.53418 0.226495
8776.96777 0.226603
8777.40137 0.226711
8777.83496 0.226819
8778.26758 0.226928
8778.70117 0.227036
8779.13477 0.227144
8779.56836 0.227253
8780.00195 0.227361
8780.43457 0.22747
8780.86816 0.227578
8781.30176 0.227687
8781.73535 0.227796
8782.16895 0.227904
8782.60254 0.228013
8783.03613 0.228122
8783.46973 0.22823
8783.90332 0.228339
8784.33691 0.228448
8784.77148 0.228557
8785.20508 0.228666
8785.63867 0.228775
8786.07227 0.228884
8786.50586 0.228993
8786.93945 0.229102
8787.37305 0.229212
8787.80762 0.229321
8788.24121 0.22943
8788.67480 0.229539
8789.10938 0.229649
8789.54297 0.229758
8789.97656 0.229867
8790.41113 0.229977
8790.84473 0.230086
8791.27930 0.230196
8791.71289 0.230306
8792.14648 0.230415
8792.58105 0.230525
8793.01465 0.230634
8793.44922 0.230744
8793.88379 0.230854
8794.31738 0.230964
8794.75195 0.231074
8795.18555 0.231184
8795.62012 0.231294
8796.05469 0.231404
8796.48828 0.231514
8796.92285 0.231624
8797.35742 0.231734
8797.79199 0.231844
8798.22559 0.231955
8798.66016 0.232065
8799.09473 0.232175
8799.52930 0.232286
8799.96387 0.232396
8800.39844 0.232493
8800.83203 0.23259
8801.26660 0.232686
8801.70117 0.232783
8802.13574 0.232879
8802.57031 0.232972
8803.00488 0.23306
8803.43945 0.233148
8803.87402 0.233235
8804.30957 0.233323
8804.74414 0.233411
8805.17871 0.233498
8805.61328 0.233586
8806.04785 0.233674
8806.48242 0.233762
8806.91797 0.233849
8807.35254 0.233937
8807.78711 0.234025
8808.22168 0.234113
8808.65723 0.234201
8809.09180 0.234289
8809.52637 0.234377
8809.96191 0.234465
8810.39648 0.234553
8810.83105 0.234641
8811.26660 0.234729
8811.70117 0.234817
8812.13672 0.234905
8812.57129 0.234993
8813.00684 0.235081
8813.44141 0.23517
8813.87695 0.235258
8814.31348 0.235346
8814.74707 0.235434
8815.18262 0.235523
8815.61719 0.235611
8816.05273 0.235699
8816.48828 0.235788
8816.92383 0.235876
8817.35840 0.235964
8817.79395 0.236053
8818.22852 0.236141
8818.66504 0.23623
8819.09961 0.236318
8819.53516 0.236407
8819.97070 0.236495
8820.40625 0.236584
8820.84180 0.236673
8821.27734 0.236761
8821.71289 0.23685
8822.14844 0.236939
8822.58398 0.237028
8823.01953 0.237116
8823.45508 0.237205
8823.89062 0.237294
8824.32617 0.237383
8824.76172 0.237472
8825.19727 0.23756
8825.63379 0.23765
8826.06934 0.237738
8826.50488 0.237827
8826.94043 0.237916
8827.37695 0.238006
8827.81348 0.238094
8828.24805 0.238183
8828.68359 0.238272
8829.12012 0.238362
8829.55566 0.238451
8829.99121 0.23854
8830.42773 0.238647
8830.86328 0.238753
8831.29980 0.23886
8831.73535 0.238967
8832.17188 0.239074
8832.60742 0.239181
8833.04395 0.239288
8833.47852 0.239395
8833.91602 0.239502
8834.35254 0.239609
8834.78809 0.239716
8835.22461 0.239824
8835.66016 0.239931
8836.09668 0.240038
8836.53320 0.240145
8836.96973 0.240253
8837.40527 0.24036
8837.84180 0.240467
8838.27832 0.240575
8838.71484 0.240682
8839.15137 0.24079
8839.58691 0.240898
8840.02344 0.241005
8840.45996 0.241113
8840.89648 0.241221
8841.33301 0.241328
8841.76953 0.241436
8842.20605 0.241544
8842.64258 0.241652
8843.07910 0.24176
8843.51562 0.241868
8843.95215 0.241976
8844.38867 0.242084
8844.82617 0.242192
8845.26270 0.2423
8845.69922 0.242408
8846.13574 0.242516
8846.57227 0.242624
8847.00977 0.242733
8847.44629 0.242841
8847.88281 0.24295
8848.31934 0.243058
8848.75684 0.243166
8849.19336 0.243275
8849.63086 0.243384
8850.06738 0.243492
8850.50391 0.2436
8850.94141 0.243709
8851.37793 0.243818
8851.81543 0.243927
8852.25195 0.244035
8852.68945 0.244144
8853.12598 0.244253
8853.56348 0.244362
8854.00098 0.244471
8854.43848 0.24458
8854.87500 0.244689
8855.31152 0.244798
8855.74902 0.244907
8856.18652 0.245016
8856.62402 0.245125
8857.06055 0.245234
8857.49805 0.245344
8857.93555 0.245453
8858.37305 0.245562
8858.81055 0.245672
8859.24707 0.245781
8859.68457 0.245891
8860.12207 0.246
8860.55957 0.24611
8860.99707 0.246219
8861.43457 0.246329
8861.87207 0.246438
8862.30957 0.246548
8862.74707 0.246658
8863.18457 0.246768
8863.62207 0.246877
8864.05957 0.246987
8864.49707 0.247097
8864.93555 0.247207
8865.37305 0.247317
8865.81055 0.247427
8866.24805 0.247537
8866.68555 0.247647
8867.12402 0.247758
8867.56152 0.247868
8867.99902 0.247978
8868.43848 0.248088
8868.87500 0.248198
8869.31152 0.248309
8869.75098 0.248419
8870.18848 0.24853
8870.62695 0.24864
8871.06445 0.248751
8871.50293 0.248861
8871.94043 0.248972
8872.37891 0.249082
8872.81641 0.249193
8873.25488 0.249304
8873.69238 0.249414
8874.13086 0.249525
8874.56934 0.249636
8875.00684 0.249747
8875.44531 0.249858
8875.88379 0.249969
8876.32129 0.25008
8876.75977 0.250191
8877.19824 0.250302
8877.63672 0.250413
8878.07422 0.250524
8878.51270 0.250635
8878.95117 0.250746
8879.38965 0.250858
8879.82812 0.250969
8880.26660 0.251081
8880.70508 0.251192
8881.14355 0.251304
8881.58203 0.251415
8882.02148 0.251526
8882.45898 0.251638
8882.89746 0.25175
8883.33594 0.251861
8883.77441 0.251973
8884.21289 0.252085
8884.65137 0.252196
8885.08984 0.252308
8885.52930 0.25242
8885.96777 0.252532
8886.40625 0.252644
8886.84473 0.252756
8887.28418 0.252868
8887.72266 0.25298
8888.16113 0.253092
8888.60059 0.253205
8889.03906 0.253317
8889.47754 0.253429
8889.91699 0.253541
8890.35547 0.253654
8890.79492 0.253766
8891.23340 0.253878
8891.67285 0.253991
8892.11133 0.254103
8892.55078 0.254216
8892.98926 0.254328
8893.42871 0.254441
8893.86719 0.254554
8894.30664 0.254667
8894.74609 0.254779
8895.18457 0.254892
8895.62402 0.255005
8896.06348 0.255118
8896.50293 0.255231
8896.94141 0.255344
8897.38086 0.255456
8897.82031 0.25557
8898.25977 0.255683
8898.69922 0.255796
8899.13867 0.255909
8899.57715 0.256022
8900.01660 0.256134
8900.45605 0.256203
8900.89648 0.256272
8901.33496 0.256341
8901.77441 0.25641
8902.21387 0.256478
8902.65332 0.256558
8903.09277 0.25665
8903.53320 0.256742
8903.97266 0.256833
8904.41211 0.256925
8904.85156 0.257016
8905.29102 0.257108
8905.73047 0.2572
8906.17090 0.257291
8906.61035 0.257383
8907.04980 0.257475
8907.48926 0.257566
8907.92969 0.257658
8908.36914 0.25775
8908.80957 0.257842
8909.24902 0.257934
8909.68848 0.258025
8910.12891 0.258117
8910.56836 0.258209
8911.00879 0.258301
8911.44824 0.258393
8911.88867 0.258485
8912.32812 0.258577
8912.76855 0.258669
8913.20801 0.258761
8913.64844 0.258853
8914.08887 0.258945
8914.52832 0.259037
8914.96875 0.259129
8915.40918 0.259221
8915.84863 0.259313
8916.28906 0.259405
8916.72852 0.259497
8917.16992 0.259589
8917.61035 0.259682
8918.04980 0.259774
8918.49023 0.259866
8918.93066 0.259958
8919.37109 0.26005
8919.81152 0.260143
8920.25195 0.26024
8920.69238 0.260342
8921.13281 0.260444
8921.57324 0.260546
8922.01367 0.260648
8922.45410 0.26075
8922.89453 0.260851
8923.33496 0.260953
8923.77539 0.261055
8924.21582 0.261157
8924.65723 0.261259
8925.09766 0.261361
8925.53809 0.261463
8925.97852 0.261565
8926.41895 0.261667
8926.86035 0.26177
8927.30078 0.261872
8927.74121 0.261974
8928.18262 0.262076
8928.62305 0.262178
8929.06445 0.262281
8929.50488 0.262383
8929.94531 0.262485
8930.38672 0.262579
8930.82715 0.262672
8931.26855 0.262765
8931.70898 0.262858
8932.15039 0.262951
8932.59082 0.263043
8933.03223 0.263136
8933.47363 0.26323
8933.91406 0.263322
8934.35547 0.263415
8934.79688 0.263508
8935.23730 0.263601
8935.67871 0.263694
8936.12012 0.263787
8936.56152 0.263881
8937.00195 0.263973
8937.44336 0.264066
8937.88477 0.26416
8938.32617 0.264253
8938.76758 0.264346
8939.20898 0.264439
8939.65039 0.264532
8940.09180 0.264626
8940.53320 0.264719
8940.97461 0.264812
8941.41602 0.264905
8941.85742 0.264999
8942.29883 0.265092
8942.74023 0.265185
8943.18164 0.265278
8943.62305 0.265372
8944.06445 0.265465
8944.50586 0.265558
8944.94727 0.265652
8945.38965 0.265745
8945.83105 0.265839
8946.27246 0.265932
8946.71387 0.266025
8947.15625 0.266119
8947.59766 0.266213
8948.03906 0.266306
8948.48145 0.2664
8948.92285 0.266493
8949.36523 0.266587
8949.80664 0.26668
8950.24902 0.26678
8950.69043 0.266883
8951.13281 0.266987
8951.57422 0.26709
8952.01660 0.267193
8952.45801 0.267297
8952.90039 0.2674
8953.34180 0.267504
8953.78418 0.267607
8954.22656 0.267711
8954.66797 0.267815
8955.11035 0.267918
8955.55273 0.268022
8955.99512 0.268126
8956.43652 0.26823
8956.87891 0.268334
8957.32129 0.268437
8957.76367 0.268541
8958.20605 0.268645
8958.64844 0.268749
8959.08984 0.268853
8959.53223 0.268957
8959.97461 0.269061
8960.41699 0.269155
8960.85938 0.26925
8961.30176 0.269344
8961.74414 0.269438
8962.18652 0.269533
8962.62988 0.269627
8963.07227 0.269721
8963.51465 0.269816
8963.95703 0.26991
8964.39941 0.270004
8964.84180 0.270099
8965.28516 0.270193
8965.72754 0.270288
8966.16992 0.270382
8966.61230 0.270476
8967.05566 0.270571
8967.49805 0.270666
8967.94043 0.27076
8968.38379 0.270855
8968.82617 0.270949
8969.26953 0.271044
8969.71191 0.271138
8970.15430 0.271236
8970.59766 0.271341
8971.04004 0.271446
8971.48340 0.271551
8971.92676 0.271656
8972.36914 0.27176
8972.81348 0.271865
8973.25488 0.27197
8973.69824 0.272075
8974.14160 0.27218
8974.58398 0.272285
8975.02734 0.27239
8975.47070 0.272495
8975.91406 0.2726
8976.35645 0.272705
8976.79980 0.27281
8977.24316 0.272915
8977.68652 0.27302
8978.12988 0.273126
8978.57324 0.273231
8979.01660 0.273336
8979.45996 0.273441
8979.90234 0.273546
8980.34570 0.273644
8980.78906 0.273739
8981.23242 0.273835
8981.67676 0.27393
8982.12012 0.274026
8982.56348 0.274121
8983.00684 0.274217
8983.45020 0.274312
8983.89355 0.274408
8984.33691 0.274503
8984.78125 0.274599
8985.22461 0.274695
8985.66797 0.27479
8986.11133 0.274886
8986.55566 0.274982
8986.99902 0.275077
8987.44238 0.275173
8987.88672 0.275269
8988.33008 0.275365
8988.77344 0.27546
8989.21777 0.275556
8989.66113 0.275652
8990.10547 0.275748
8990.54883 0.275844
8990.99316 0.27594
8991.43652 0.276035
8991.88086 0.276131
8992.32520 0.276228
8992.76855 0.276323
8993.21289 0.276419
8993.65625 0.276515
8994.10059 0.276611
8994.54492 0.276708
8994.98926 0.276804
8995.43262 0.2769
8995.87695 0.276996
8996.32129 0.277092
8996.76562 0.277188
8997.20898 0.277284
8997.65332 0.277381
8998.09766 0.277477
8998.54199 0.277573
8998.98633 0.277669
8999.43066 0.277766
8999.87500 0.277862
9000.31934 0.277945
9000.76367 0.278023
9001.20801 0.278101
9001.65234 0.278179
9002.09668 0.278257
9002.54102 0.278323
9002.98535 0.278328
9003.43066 0.278333
9003.87500 0.278338
9004.31934 0.278343
9004.76367 0.278348
9005.20801 0.278353
9005.65332 0.278359
9006.09766 0.278363
9006.54199 0.278369
9006.98730 0.278374
9007.43164 0.278379
9007.87598 0.278384
9008.32129 0.278389
9008.76562 0.278394
9009.21094 0.278399
9009.65527 0.278404
9010.10059 0.278407
9010.54492 0.278402
9010.99023 0.278396
9011.43457 0.278392
9011.87988 0.278386
9012.32422 0.278382
9012.76953 0.278377
9013.21484 0.278371
9013.65918 0.278367
9014.10352 0.278361
9014.54980 0.278356
9014.99414 0.278351
9015.43945 0.278346
9015.88477 0.278341
9016.33008 0.278336
9016.77539 0.278331
9017.21973 0.278326
9017.66504 0.278321
9018.11035 0.278316
9018.55566 0.278311
9019.00098 0.278306
9019.44629 0.278301
9019.89160 0.278296
9020.33691 0.278299
9020.78223 0.278304
9021.22754 0.27831
9021.67285 0.278315
9022.11816 0.278321
9022.56348 0.278326
9023.00879 0.278332
9023.45508 0.278337
9023.90039 0.278342
9024.34570 0.278348
9024.79102 0.278353
9025.23730 0.278359
9025.68262 0.278364
9026.12793 0.27837
9026.57324 0.278375
9027.01953 0.27838
9027.46484 0.278386
9027.91016 0.278391
9028.35645 0.278397
9028.80176 0.278402
9029.24805 0.278408
9029.69336 0.278413
9030.13965 0.278419
9030.58496 0.278425
9031.03125 0.27843
9031.47656 0.278436
9031.92285 0.278442
9032.36914 0.278448
9032.81445 0.278454
9033.26074 0.278459
9033.70703 0.278465
9034.15234 0.278471
9034.59863 0.278477
9035.04492 0.278483
9035.49121 0.278488
9035.93652 0.278494
9036.38281 0.2785
9036.82910 0.278506
9037.27539 0.278512
9037.72168 0.278517
9038.16797 0.278523
9038.61426 0.278529
9039.06055 0.278535
9039.50684 0.278541
9039.95312 0.278546
9040.39941 0.278552
9040.84570 0.278558
9041.29199 0.278564
9041.73828 0.27857
9042.18457 0.278576
9042.63086 0.278582
9043.07715 0.278588
9043.52344 0.278594
9043.97070 0.2786
9044.41699 0.278606
9044.86328 0.278612
9045.30957 0.278618
9045.75684 0.278624
9046.20312 0.27863
9046.64941 0.278636
9047.09668 0.278642
9047.54297 0.278648
9047.98926 0.278654
9048.43652 0.27866
9048.88281 0.278666
9049.33008 0.278672
9049.77637 0.278678
9050.22363 0.278689
9050.66992 0.278706
9051.11719 0.278722
9051.56348 0.278739
9052.01074 0.278755
9052.45801 0.278772
9052.90430 0.278788
9053.35156 0.278805
9053.79883 0.278821
9054.24512 0.278838
9054.69238 0.278854
9055.13965 0.278871
9055.58691 0.278887
9056.03320 0.278904
9056.48047 0.27892
9056.92773 0.278937
9057.37500 0.278953
9057.82227 0.27897
9058.26953 0.278986
9058.71680 0.279003
9059.16406 0.279019
9059.61133 0.279036
9060.05859 0.279051
9060.50586 0.279057
9060.95312 0.279064
9061.40039 0.27907
9061.84766 0.279076
9062.29492 0.279083
9062.74219 0.279089
9063.18945 0.279095
9063.63770 0.279102
9064.08496 0.279108
9064.53223 0.279114
9064.97852 0.279121
9065.42773 0.279127
9065.87500 0.279133
9066.32227 0.27914
9066.77148 0.279146
9067.21777 0.279152
9067.66504 0.279158
9068.11328 0.279165
9068.56055 0.279171
9069.00879 0.279178
9069.45605 0.279184
9069.90430 0.27919
9070.35156 0.279205
9070.79980 0.279222
9071.24707 0.279239
9071.69531 0.279255
9072.14355 0.279272
9072.59082 0.279289
9073.03906 0.279306
9073.48730 0.279323
9073.93457 0.27934
9074.38281 0.279357
9074.83105 0.279374
9075.27930 0.279391
9075.72754 0.279407
9076.17480 0.279425
9076.62305 0.279441
9077.07129 0.279458
9077.51953 0.279475
9077.96777 0.279492
9078.41602 0.279509
9078.86426 0.279526
9079.31348 0.279543
9079.76074 0.27956
9080.20898 0.279572
9080.65723 0.279579
9081.10547 0.279585
9081.55371 0.279592
9082.00195 0.279598
9082.45020 0.279605
9082.89844 0.279612
9083.34766 0.279618
9083.79590 0.279625
9084.24414 0.279632
9084.69238 0.279638
9085.14160 0.279645
9085.58984 0.279651
9086.03809 0.279658
9086.48730 0.279665
9086.93555 0.279671
9087.38379 0.279678
9087.83301 0.279685
9088.28125 0.279691
9088.73047 0.279698
9089.17871 0.279704
9089.62793 0.279711
9090.07617 0.279718
9090.52539 0.279724
9090.97363 0.279731
9091.42285 0.279738
9091.87207 0.279745
9092.32031 0.279752
9092.76953 0.279759
9093.21875 0.279765
9093.66699 0.279772
9094.11621 0.279779
9094.56543 0.279786
9095.01465 0.279792
9095.46289 0.279799
9095.91211 0.279806
9096.36133 0.279813
9096.81055 0.27982
9097.25977 0.279826
9097.70898 0.279833
9098.15820 0.27984
9098.60742 0.279847
9099.05664 0.279853
9099.50586 0.27986
9099.95508 0.279867
9100.40430 0.279884
9100.85352 0.279901
9101.30273 0.279918
9101.75195 0.279936
9102.20117 0.279953
9102.65039 0.279998
9103.10059 0.280096
9103.54980 0.280194
9103.99902 0.280292
9104.44824 0.28039
9104.89844 0.280488
9105.34766 0.280587
9105.79688 0.280685
9106.24707 0.280783
9106.69629 0.280881
9107.14648 0.280979
9107.59570 0.281078
9108.04492 0.281176
9108.49512 0.281274
9108.94434 0.281373
9109.39453 0.281471
9109.84375 0.281569
9110.29395 0.281661
9110.74316 0.281749
9111.19336 0.281837
9111.64258 0.281925
9112.09277 0.282013
9112.54297 0.282101
9112.99219 0.282189
9113.44238 0.282277
9113.89258 0.282365
9114.34277 0.282454
9114.79199 0.282542
9115.24219 0.28263
9115.69238 0.282718
9116.14258 0.282806
9116.59277 0.282894
9117.04297 0.282983
9117.49316 0.283071
9117.94336 0.283159
9118.39355 0.283247
9118.84375 0.283335
9119.29395 0.283423
9119.74414 0.283512
9120.19434 0.283605
9120.64453 0.283704
9121.09473 0.283803
9121.54492 0.283902
9121.99512 0.284001
9122.44531 0.2841
9122.89648 0.284199
9123.34668 0.284298
9123.79688 0.284398
9124.24707 0.284497
9124.69727 0.284596
9125.14844 0.284695
9125.59863 0.284794
9126.04883 0.284894
9126.50000 0.284993
9126.95020 0.285092
9127.40137 0.285192
9127.85156 0.285291
9128.30176 0.28539
9128.75293 0.28549
9129.20312 0.285589
9129.65430 0.285689
9130.10547 0.285786
9130.55566 0.285874
9131.00684 0.285963
9131.45703 0.286052
9131.90820 0.286141
9132.35938 0.28623
9132.80957 0.286319
9133.26074 0.286408
9133.71191 0.286497
9134.16309 0.286586
9134.61328 0.286675
9135.06445 0.286764
9135.51562 0.286853
9135.96680 0.286942
9136.41797 0.287031
9136.86914 0.28712
9137.32031 0.287209
9137.77148 0.287298
9138.22168 0.287387
9138.67285 0.287476
9139.12402 0.287565
9139.57520 0.287654
9140.02734 0.287744
9140.47852 0.287844
9140.92969 0.287944
9141.38086 0.288044
9141.83203 0.288144
9142.28320 0.288245
9142.73438 0.288345
9143.18652 0.288445
9143.63770 0.288545
9144.08887 0.288646
9144.54004 0.288746
9144.99219 0.288846
9145.44336 0.288946
9145.89453 0.289047
9146.34668 0.289147
9146.79785 0.289247
9147.25000 0.289348
9147.70117 0.289448
9148.15234 0.289549
9148.60352 0.289649
9149.05566 0.28975
9149.50781 0.28985
9149.95996 0.289951
9150.41113 0.290041
9150.86328 0.290131
9151.31445 0.290221
9151.76660 0.290311
9152.21875 0.290401
9152.66992 0.29049
9153.12207 0.29058
9153.57422 0.29067
9154.02637 0.29076
9154.47754 0.290849
9154.92969 0.29094
9155.38184 0.291029
9155.83398 0.291119
9156.28613 0.291209
9156.73828 0.291299
9157.19043 0.291389
9157.64258 0.291479
9158.09473 0.291569
9158.54688 0.291659
9158.99902 0.291749
9159.45117 0.291839
9159.90332 0.291929
9160.35547 0.292027
9160.80762 0.292129
9161.25977 0.29223
9161.71191 0.292331
9162.16406 0.292432
9162.61621 0.292533
9163.06934 0.292635
9163.52148 0.292736
9163.97363 0.292837
9164.42578 0.292938
9164.87891 0.29304
9165.33105 0.293141
9165.78320 0.293243
9166.23633 0.293344
9166.68848 0.293445
9167.14160 0.293547
9167.59375 0.293648
9168.04688 0.29375
9168.49902 0.293851
9168.95215 0.293953
9169.40430 0.294054
9169.85742 0.294156
9170.30957 0.29425
9170.76270 0.294341
9171.21582 0.294431
9171.66797 0.294522
9172.12109 0.294612
9172.57422 0.294703
9173.02637 0.294794
9173.47852 0.294884
9173.93262 0.294975
9174.38574 0.295066
9174.83789 0.295156
9175.29102 0.295247
9175.74414 0.295338
9176.19727 0.295429
9176.65039 0.295519
9177.10352 0.29561
9177.55664 0.295701
9178.00977 0.295792
9178.46289 0.295883
9178.91602 0.295973
9179.36914 0.296064
9179.82227 0.296155
9180.27539 0.296253
9180.72852 0.296355
9181.18164 0.296457
9181.63477 0.296559
9182.08887 0.296662
9182.54199 0.296764
9182.99512 0.296866
9183.44824 0.296969
9183.90234 0.297071
9184.35547 0.297173
9184.80859 0.297276
9185.26270 0.297378
9185.71582 0.29748
9186.16895 0.297583
9186.62305 0.297685
9187.07617 0.297788
9187.53027 0.29789
9187.98340 0.297993
9188.43848 0.298096
9188.89062 0.298198
9189.34473 0.298301
9189.79785 0.298403
9190.25195 0.2985
9190.70508 0.298591
9191.15918 0.298683
9191.61328 0.298774
9192.06641 0.298865
9192.52148 0.298957
9192.97461 0.299048
9193.42871 0.29914
9193.88184 0.299231
9194.33594 0.299323
9194.79004 0.299415
9195.24414 0.299506
9195.69824 0.299598
9196.15234 0.299689
9196.60645 0.299781
9197.06055 0.299873
9197.51465 0.299964
9197.96777 0.300056
9198.42285 0.300148
9198.87695 0.300239
9199.33105 0.300331
9199.78516 0.300422
9200.23926 0.300515
9200.69336 0.300609
9201.14746 0.300703
9201.60156 0.300797
9202.05566 0.300891
9202.51074 0.300986
9202.96484 0.301045
9203.41895 0.301103
9203.87305 0.301162
9204.32812 0.30122
9204.78223 0.301279
9205.23633 0.301337
9205.69141 0.301395
9206.14648 0.301454
9206.60059 0.301512
9207.05469 0.301571
9207.50977 0.301629
9207.96387 0.301688
9208.41895 0.301746
9208.87305 0.301805
9209.32812 0.301863
9209.78223 0.301922
9210.23730 0.301974
9210.69141 0.302021
9211.14648 0.302069
9211.60156 0.302116
9212.05566 0.302163
9212.51074 0.30221
9212.96582 0.302257
9213.42090 0.302304
9213.87500 0.302352
9214.33008 0.302399
9214.78516 0.302446
9215.24023 0.302493
9215.69531 0.30254
9216.15039 0.302588
9216.60547 0.302635
9217.06055 0.302682
9217.51562 0.302729
9217.97070 0.302776
9218.42578 0.302824
9218.88086 0.302871
9219.33594 0.302918
9219.79102 0.302965
9220.24609 0.303019
9220.70117 0.303078
9221.15625 0.303136
9221.61133 0.303195
9222.06738 0.303254
9222.52246 0.303313
9222.97754 0.303372
9223.43262 0.303431
9223.88867 0.30349
9224.34375 0.303549
9224.79883 0.303608
9225.25488 0.303667
9225.70996 0.303726
9226.16504 0.303785
9226.62109 0.303844
9227.07617 0.303903
9227.53223 0.303962
9227.98730 0.304021
9228.44336 0.30408
9228.89844 0.304139
9229.35352 0.304198
9229.81055 0.304257
9230.26562 0.304317
9230.72168 0.304376
9231.17773 0.304436
9231.63281 0.304496
9232.08887 0.304556
9232.54492 0.304615
9233.00000 0.304675
9233.45605 0.304735
9233.91211 0.304795
9234.36816 0.304854
9234.82422 0.304914
9235.28027 0.304974
9235.73535 0.305034
9236.19141 0.305094
9236.64746 0.305153
9237.10352 0.305213
9237.55957 0.305273
9238.01562 0.305333
9238.47168 0.305393
9238.92773 0.305453
9239.38379 0.305512
9239.84082 0.305572
9240.29688 0.30564
9240.75293 0.305712
9241.20898 0.305783
9241.66504 0.305855
9242.12109 0.305927
9242.57812 0.305998
9243.03418 0.30607
9243.49023 0.306142
9243.94629 0.306214
9244.40332 0.306285
9244.85938 0.306357
9245.31641 0.306429
9245.77246 0.306501
9246.22852 0.306573
9246.68555 0.306644
9247.14160 0.306716
9247.59863 0.306788
9248.05469 0.30686
9248.51172 0.306932
9248.96777 0.307004
9249.42480 0.307076
9249.88184 0.307148
9250.33789 0.307211
9250.79492 0.307271
9251.25195 0.307332
9251.70801 0.307392
9252.16504 0.307453
9252.62207 0.307513
9253.07910 0.307573
9253.53516 0.307633
9253.99219 0.307694
9254.44922 0.307754
9254.90625 0.307814
9255.36328 0.307875
9255.82031 0.307935
9256.27734 0.307996
9256.73438 0.308056
9257.19141 0.308117
9257.64844 0.308177
9258.10547 0.308237
9258.56348 0.308298
9259.01953 0.308358
9259.47656 0.308419
9259.93359 0.308479
9260.39062 0.30855
9260.84766 0.308622
9261.30469 0.308694
9261.76270 0.308767
9262.21973 0.308839
9262.67676 0.308912
9263.13379 0.308984
9263.59180 0.309057
9264.04883 0.309129
9264.50586 0.309202
9264.96387 0.309274
9265.42090 0.309347
9265.87891 0.309419
9266.33594 0.309492
9266.79297 0.309564
9267.25098 0.309637
9267.70801 0.30971
9268.16602 0.309782
9268.62402 0.309855
9269.08105 0.309927
9269.53906 0.31
9269.99609 0.310073
9270.45410 0.310134
9270.91211 0.310194
9271.36914 0.310255
9271.82715 0.310316
9272.28516 0.310377
9272.74316 0.310438
9273.20020 0.310499
9273.65820 0.31056
9274.11621 0.310621
9274.57422 0.310681
9275.03223 0.310742
9275.49023 0.310803
9275.94824 0.310864
9276.40625 0.310925
9276.86426 0.310986
9277.32227 0.311047
9277.78027 0.311108
9278.23828 0.311169
9278.69629 0.31123
9279.15430 0.311291
9279.61230 0.311352
9280.07031 0.311415
9280.52832 0.311488
9280.98633 0.311561
9281.44531 0.311634
9281.90332 0.311707
9282.36133 0.31178
9282.81934 0.311853
9283.27832 0.311927
9283.73633 0.312
9284.19434 0.312073
9284.65332 0.312146
9285.11133 0.312219
9285.56934 0.312292
9286.02832 0.312366
9286.48633 0.312439
9286.94531 0.312512
9287.40332 0.312586
9287.86230 0.312659
9288.32031 0.312732
9288.77930 0.312805
9289.23828 0.312879
9289.69629 0.312952
9290.15527 0.313021
9290.61426 0.313083
9291.07227 0.313144
9291.53125 0.313206
9291.99023 0.313267
9292.44824 0.313328
9292.90723 0.31339
9293.36621 0.313451
9293.82520 0.313513
9294.28418 0.313574
9294.74316 0.313636
9295.20117 0.313697
9295.66016 0.313758
9296.11914 0.31382
9296.57812 0.313881
9297.03711 0.313943
9297.49609 0.314005
9297.95508 0.314066
9298.41406 0.314128
9298.87402 0.314189
9299.33301 0.314251
9299.79199 0.314312
9300.25098 0.314381
9300.70996 0.314454
9301.16895 0.314528
9301.62891 0.314602
9302.08789 0.314676
9302.54688 0.314749
9303.00586 0.314754
9303.46582 0.314757
9303.92480 0.31476
9304.38379 0.314764
9304.84375 0.314767
9305.30273 0.314771
9305.76270 0.314774
9306.22168 0.314778
9306.68164 0.314781
9307.14062 0.314785
9307.60059 0.314788
9308.05957 0.314792
9308.51953 0.314795
9308.97852 0.314798
9309.43848 0.314802
9309.89844 0.314805
9310.35742 0.314799
9310.81738 0.314791
9311.27734 0.314782
9311.73633 0.314773
9312.19629 0.314765
9312.65625 0.314756
9313.11621 0.314747
9313.57617 0.314738
9314.03516 0.31473
9314.49512 0.314721
9314.95508 0.314712
9315.41504 0.314704
9315.87500 0.314695
9316.33496 0.314686
9316.79492 0.314677
9317.25488 0.314669
9317.71484 0.31466
9318.17480 0.314651
9318.63477 0.314642
9319.09473 0.314634
9319.55469 0.314625
9320.01562 0.314617
9320.47559 0.31462
9320.93555 0.314624
9321.39648 0.314627
9321.85547 0.31463
9322.31641 0.314634
9322.77637 0.314637
9323.23633 0.314641
9323.69727 0.314644
9324.15723 0.314647
9324.61719 0.314651
9325.07812 0.314654
9325.53809 0.314658
9325.99902 0.314661
9326.45898 0.314664
9326.91992 0.314668
9327.37988 0.314671
9327.84082 0.314675
9328.30078 0.314678
9328.76172 0.314681
9329.22266 0.314685
9329.68262 0.314688
9330.14355 0.314688
9330.60352 0.314679
9331.06445 0.31467
9331.52539 0.314661
9331.98633 0.314652
9332.44727 0.314644
9332.90723 0.314635
9333.36816 0.314626
9333.82910 0.314617
9334.29004 0.314608
9334.75098 0.314599
9335.21191 0.314591
9335.67285 0.314582
9336.13379 0.314573
9336.59473 0.314564
9337.05566 0.314555
9337.51660 0.314546
9337.97754 0.314538
9338.43848 0.314529
9338.89941 0.31452
9339.36035 0.314511
9339.82129 0.314502
9340.28320 0.314501
9340.74414 0.314504
9341.20508 0.314507
9341.66602 0.314511
9342.12695 0.314514
9342.58887 0.314517
9343.04980 0.314521
9343.51074 0.314524
9343.97266 0.314527
9344.43359 0.314531
9344.89648 0.314534
9345.35645 0.314537
9345.81738 0.314541
9346.27930 0.314544
9346.74023 0.314547
9347.20215 0.314551
9347.66406 0.314554
9348.12500 0.314557
9348.58691 0.31456
9349.04785 0.314564
9349.50977 0.314567
9349.97168 0.31457
9350.43262 0.314562
9350.89453 0.314553
9351.35645 0.314544
9351.81836 0.314535
9352.27930 0.314526
9352.74121 0.314517
9353.20312 0.314508
9353.66504 0.314499
9354.12695 0.314491
9354.58887 0.314482
9355.05078 0.314473
9355.51270 0.314464
9355.97461 0.314455
9356.43652 0.314446
9356.89844 0.314437
9357.36035 0.314428
9357.82227 0.314419
9358.28418 0.31441
9358.74609 0.314401
9359.20801 0.314392
9359.66992 0.314383
9360.13184 0.314377
9360.59473 0.31438
9361.05664 0.314384
9361.51855 0.314387
9361.98047 0.31439
9362.44336 0.314393
9362.90527 0.314397
9363.36719 0.3144
9363.83008 0.314403
9364.29199 0.314406
9364.75391 0.31441
9365.21680 0.314413
9365.67871 0.314416
9366.14160 0.314419
9366.60352 0.314422
9367.06641 0.314426
9367.52832 0.314429
9367.99121 0.314432
9368.45410 0.314435
9368.91602 0.314438
9369.37891 0.314442
9369.84180 0.314445
9370.30371 0.31444
9370.76660 0.314431
9371.22852 0.314422
9371.69238 0.314413
9372.15430 0.314404
9372.61719 0.314395
9373.08008 0.314385
9373.54297 0.314376
9374.00586 0.314367
9374.46875 0.314358
9374.93164 0.314349
9375.39355 0.31434
9375.85645 0.314331
9376.31934 0.314321
9376.78223 0.314312
9377.24609 0.314303
9377.70898 0.314294
9378.17188 0.314285
9378.63477 0.314276
9379.09766 0.314266
9379.56055 0.314257
9380.02344 0.314249
9380.48730 0.314252
9380.95020 0.314255
9381.41309 0.314258
9381.87598 0.314261
9382.33984 0.314264
9382.80273 0.314267
9383.26562 0.31427
9383.72852 0.314273
9384.19238 0.314277
9384.65625 0.31428
9385.11914 0.314283
9385.58203 0.314286
9386.04590 0.314289
9386.50879 0.314292
9386.97266 0.314295
9387.43652 0.314298
9387.89941 0.314301
9388.36328 0.314304
9388.82617 0.314307
9389.29004 0.31431
9389.75391 0.314313
9390.21680 0.314316
9390.68066 0.314319
9391.14453 0.314322
9391.60840 0.314325
9392.07129 0.314328
9392.53516 0.314331
9392.99902 0.314335
9393.46289 0.314338
9393.92676 0.314341
9394.39062 0.314344
9394.85352 0.314347
9395.31836 0.31435
9395.78223 0.314353
9396.24609 0.314356
9396.70996 0.314359
9397.17383 0.314362
9397.63770 0.314365
9398.10156 0.314368
9398.56543 0.314371
9399.02930 0.314374
9399.49316 0.314377
9399.95801 0.314379
9400.42188 0.314359
9400.88574 0.314336
9401.34961 0.314313
9401.81445 0.31429
9402.27832 0.314267
9402.74219 0.314277
9403.20703 0.314347
9403.67090 0.314417
9404.13477 0.314487
9404.59961 0.314558
9405.06348 0.314628
9405.52832 0.314698
9405.99219 0.314769
9406.45703 0.314839
9406.92090 0.314909
9407.38574 0.31498
9407.85059 0.31505
9408.31445 0.31512
9408.77930 0.315191
9409.24316 0.315261
9409.70801 0.315331
9410.17285 0.315406
9410.63770 0.315489
9411.10156 0.315572
9411.56641 0.315655
9412.03125 0.315737
9412.49609 0.31582
9412.96094 0.315903
9413.42578 0.315986
9413.88965 0.316068
9414.35352 0.316151
9414.81934 0.316234
9415.28418 0.316317
9415.74902 0.3164
9416.21387 0.316483
9416.67871 0.316566
9417.14355 0.316648
9417.60840 0.316731
9418.07422 0.316814
9418.53906 0.316897
9419.00391 0.31698
9419.46875 0.317063
9419.93359 0.317146
9420.39941 0.317219
9420.86426 0.317289
9421.32910 0.31736
9421.79395 0.31743
9422.25977 0.317501
9422.72461 0.317571
9423.18945 0.317642
9423.65527 0.317713
9424.12012 0.317783
9424.58594 0.317854
9425.05078 0.317924
9425.51660 0.317995
9425.98145 0.318066
9426.44727 0.318136
9426.91211 0.318207
9427.37793 0.318277
9427.84277 0.318348
9428.30859 0.318419
9428.77441 0.318489
9429.23926 0.31856
9429.70508 0.318631
9430.17090 0.318709
9430.63672 0.3188
9431.10156 0.318892
9431.56738 0.318983
9432.03320 0.319075
9432.49902 0.319166
9432.96484 0.319258
9433.43066 0.31935
9433.89648 0.319441
9434.36133 0.319532
9434.82715 0.319624
9435.29297 0.319716
9435.75879 0.319807
9436.22461 0.319899
9436.69043 0.319991
9437.15625 0.320082
9437.62305 0.320174
9438.08887 0.320266
9438.55469 0.320358
9439.02148 0.320449
9439.48633 0.320541
9439.95215 0.320633
9440.41895 0.320713
9440.88477 0.320792
9441.35059 0.320872
9441.81738 0.320951
9442.28320 0.32103
9442.74902 0.321109
9443.21582 0.321188
9443.68164 0.321268
9444.14746 0.321347
9444.61426 0.321426
9445.08008 0.321505
9445.54688 0.321585
9446.01270 0.321664
9446.47852 0.321743
9446.94629 0.321823
9447.41211 0.321902
9447.87891 0.321981
9448.34473 0.32206
9448.81152 0.32214
9449.27832 0.322219
9449.74414 0.322298
9450.21094 0.322383
9450.67773 0.322476
9451.14453 0.322568
9451.61133 0.32266
9452.07715 0.322752
9452.54395 0.322844
9453.01074 0.322936
9453.47754 0.323028
9453.94434 0.32312
9454.41113 0.323213
9454.87793 0.323305
9455.34473 0.323397
9455.81152 0.323489
9456.27832 0.323582
9456.74512 0.323674
9457.21191 0.323766
9457.67871 0.323858
9458.14648 0.323951
9458.61328 0.324043
9459.08008 0.324136
9459.54688 0.324228
9460.01367 0.32432
9460.48047 0.324412
9460.94824 0.324505
9461.41504 0.324597
9461.88184 0.32469
9462.34961 0.324782
9462.81641 0.324875
9463.28320 0.324967
9463.75098 0.32506
9464.21777 0.325152
9464.68555 0.325245
9465.15234 0.325337
9465.62012 0.32543
9466.08691 0.325522
9466.55469 0.325615
9467.02148 0.325707
9467.48926 0.3258
9467.95703 0.325893
9468.42383 0.325986
9468.89160 0.326078
9469.35938 0.326171
9469.82617 0.326264
9470.29395 0.326348
9470.76172 0.326428
9471.22852 0.326508
9471.69727 0.326588
9472.16406 0.326668
9472.63184 0.326748
9473.09961 0.326827
9473.56738 0.326907
9474.03516 0.326987
9474.50293 0.327067
9474.97070 0.327147
9475.43848 0.327227
9475.90625 0.327307
9476.37402 0.327387
9476.84180 0.327467
9477.30957 0.327547
9477.77832 0.327627
9478.24609 0.327707
9478.71387 0.327787
9479.18164 0.327867
9479.64941 0.327947
9480.11816 0.32803
9480.58594 0.328123
9481.05371 0.328216
9481.52148 0.328309
9481.99023 0.328402
9482.45801 0.328495
9482.92676 0.328588
9483.39453 0.328681
9483.86230 0.328774
9484.33105 0.328868
9484.79883 0.328961
9485.26758 0.329054
9485.73535 0.329147
9486.20410 0.32924
9486.67188 0.329333
9487.14062 0.329427
9487.60938 0.32952
9488.07715 0.329613
9488.54590 0.329706
9489.01465 0.3298
9489.48242 0.329893
9489.95117 0.329986
9490.41992 0.330079
9490.88867 0.330173
9491.35742 0.330266
9491.82520 0.330359
9492.29395 0.330453
9492.76270 0.330546
9493.23145 0.33064
9493.70020 0.330733
9494.16895 0.330826
9494.63770 0.33092
9495.10645 0.331013
9495.57520 0.331107
9496.04395 0.3312
9496.51270 0.331294
9496.98145 0.331388
9497.45020 0.331481
9497.91992 0.331575
9498.38867 0.331668
9498.85742 0.331762
9499.32617 0.331855
9499.79492 0.331949
9500.26465 0.332034
9500.73340 0.332112
9501.20215 0.33219
9501.67188 0.332268
9502.14062 0.332346
9502.60938 0.332424
9503.07910 0.33246
9503.54785 0.332496
9504.01758 0.332532
9504.48633 0.332568
9504.95605 0.332604
9505.42480 0.33264
9505.89453 0.332676
9506.36328 0.332713
9506.83301 0.332749
9507.30176 0.332785
9507.77148 0.332821
9508.24121 0.332857
9508.70996 0.332893
9509.17969 0.332929
9509.64941 0.332966
9510.11914 0.333005
9510.58887 0.333054
9511.05762 0.333104
9511.52734 0.333153
9511.99707 0.333202
9512.46680 0.333252
9512.93652 0.333301
9513.40625 0.33335
9513.87598 0.3334
9514.34570 0.333449
9514.81543 0.333499
9515.28516 0.333548
9515.75488 0.333597
9516.22461 0.333647
9516.69434 0.333696
9517.16406 0.333745
9517.63379 0.333795
9518.10352 0.333844
9518.57422 0.333894
9519.04395 0.333943
9519.51367 0.333993
9519.98340 0.334042
9520.45410 0.334079
9520.92383 0.334115
9521.39355 0.334151
9521.86426 0.334187
9522.33398 0.334223
9522.80371 0.334259
9523.27441 0.334296
9523.74414 0.334332
9524.21484 0.334368
9524.68457 0.334404
9525.15527 0.33444
9525.62500 0.334476
9526.09570 0.334512
9526.56543 0.334549
9527.03613 0.334585
9527.50684 0.334621
9527.97656 0.334657
9528.44727 0.334693
9528.91797 0.33473
9529.38867 0.334766
9529.85840 0.334802
9530.32910 0.334848
9530.79980 0.334897
9531.27148 0.334946
9531.74121 0.334996
9532.21191 0.335045
9532.68164 0.335095
9533.15234 0.335144
9533.62305 0.335194
9534.09375 0.335243
9534.56445 0.335293
9535.03516 0.335342
9535.50586 0.335392
9535.97656 0.335441
9536.44824 0.335491
9536.91895 0.335541
9537.38965 0.33559
9537.86035 0.33564
9538.33105 0.335689
9538.80176 0.335739
9539.27344 0.335788
9539.74414 0.335838
9540.21484 0.335888
9540.68555 0.335937
9541.15723 0.335987
9541.62793 0.336036
9542.09961 0.336086
9542.57031 0.336136
9543.04102 0.336185
9543.51270 0.336235
9543.98340 0.336284
9544.45508 0.336334
9544.92578 0.336383
9545.39746 0.336433
9545.86816 0.336483
9546.33984 0.336532
9546.81152 0.336582
9547.28223 0.336631
9547.75391 0.336681
9548.22559 0.336731
9548.69629 0.33678
9549.16797 0.33683
9549.63965 0.33688
9550.11133 0.336926
9550.58301 0.336962
9551.05371 0.336999
9551.52539 0.337035
9551.99707 0.337071
9552.46875 0.337107
9552.94043 0.337143
9553.41211 0.337179
9553.88379 0.337215
9554.35547 0.337252
9554.82715 0.337288
9555.29883 0.337324
9555.77148 0.33736
9556.24219 0.337396
9556.71387 0.337433
9557.18555 0.337469
9557.65820 0.337505
9558.12988 0.337541
9558.60156 0.337577
9559.07324 0.337613
9559.54492 0.33765
9560.01758 0.337686
9560.48926 0.337736
9560.96094 0.337786
9561.43359 0.337835
9561.90527 0.337885
9562.37793 0.337935
9562.84961 0.337984
9563.32129 0.338034
9563.79395 0.338084
9564.26562 0.338133
9564.73828 0.338183
9565.20996 0.338233
9565.68262 0.338282
9566.15527 0.338332
9566.62695 0.338382
9567.09961 0.338432
9567.57227 0.338481
9568.04395 0.338531
9568.51660 0.338581
9568.98926 0.338631
9569.46191 0.33868
9569.93359 0.33873
9570.40625 0.33878
9570.87891 0.33883
9571.35156 0.338879
9571.82422 0.338929
9572.29688 0.338979
9572.76953 0.339028
9573.24219 0.339078
9573.71387 0.339128
9574.18652 0.339178
9574.66016 0.339227
9575.13281 0.339277
9575.60547 0.339327
9576.07812 0.339377
9576.55078 0.339426
9577.02344 0.339476
9577.49609 0.339526
9577.96875 0.339576
9578.44238 0.339626
9578.91504 0.339675
9579.38770 0.339725
9579.86035 0.339775
9580.33398 0.339815
9580.80664 0.339851
9581.27930 0.339888
9581.75293 0.339923
9582.22559 0.33996
9582.69922 0.339996
9583.17188 0.340032
9583.64648 0.340068
9584.11816 0.340104
9584.59180 0.34014
9585.06445 0.340176
9585.53809 0.340213
9586.01074 0.340249
9586.48438 0.340285
9586.95801 0.340321
9587.43066 0.340357
9587.90430 0.340393
9588.37793 0.340429
9588.85059 0.340466
9589.32422 0.340502
9589.79785 0.340538
9590.27148 0.340582
9590.74512 0.340632
9591.21875 0.340682
9591.69141 0.340731
9592.16504 0.340781
9592.63867 0.340831
9593.11230 0.34088
9593.58594 0.34093
9594.05957 0.34098
9594.53320 0.34103
9595.00684 0.34108
9595.48047 0.341129
9595.95508 0.34118
9596.42871 0.341229
9596.90234 0.341279
9597.37598 0.341329
9597.84961 0.341379
9598.32324 0.341429
9598.79785 0.341479
9599.27148 0.341528
9599.74512 0.341578
9600.21973 0.341625
9600.69336 0.341669
9601.16699 0.341713
9601.64160 0.341757
9602.11523 0.341801
9602.58984 0.341845
9603.06348 0.341899
9603.53711 0.341955
9604.01172 0.342011
9604.48633 0.342067
9604.95996 0.342123
9605.43457 0.342178
9605.90820 0.342234
9606.38281 0.34229
9606.85742 0.342346
9607.33105 0.342402
9607.80566 0.342458
9608.28027 0.342514
9608.75391 0.342569
9609.22852 0.342625
9609.70312 0.342681
9610.17773 0.342732
9610.65234 0.342774
9611.12695 0.342816
9611.60059 0.342858
9612.07520 0.3429
9612.54980 0.342942
9613.02441 0.342984
9613.49902 0.343026
9613.97363 0.343068
9614.44824 0.34311
9614.92285 0.343152
9615.39746 0.343194
9615.87305 0.343236
9616.34766 0.343278
9616.82227 0.34332
9617.29688 0.343362
9617.77148 0.343404
9618.24707 0.343446
9618.72168 0.343488
9619.19629 0.34353
9619.67090 0.343572
9620.14648 0.343618
9620.62109 0.343674
9621.09570 0.34373
9621.57129 0.343785
9622.04590 0.343841
9622.52148 0.343897
9622.99609 0.343953
9623.47168 0.344008
9623.94629 0.344064
9624.42188 0.34412
9624.89648 0.344176
9625.37207 0.344232
9625.84766 0.344288
9626.32227 0.344343
9626.79785 0.344399
9627.27344 0.344455
9627.74805 0.344511
9628.22363 0.344567
9628.69922 0.344623
9629.17383 0.344679
9629.64941 0.344735
9630.12500 0.344792
9630.60059 0.344855
9631.07617 0.344917
9631.55176 0.344979
9632.02734 0.345042
9632.50293 0.345104
9632.97852 0.345167
9633.45410 0.345229
9633.92969 0.345291
9634.40527 0.345354
9634.88086 0.345416
9635.35645 0.345479
9635.83203 0.345541
9636.30762 0.345604
9636.78320 0.345666
9637.25977 0.345729
9637.73535 0.345791
9638.21094 0.345854
9638.68652 0.345916
9639.16309 0.345979
9639.63867 0.346041
9640.11426 0.3461
9640.59082 0.346149
9641.06641 0.346197
9641.54199 0.346246
9642.01855 0.346294
9642.49414 0.346342
9642.97070 0.346391
9643.44629 0.346439
9643.92285 0.346488
9644.39844 0.346536
9644.87500 0.346585
9645.35059 0.346633
9645.82715 0.346681
9646.30371 0.34673
9646.77930 0.346778
9647.25586 0.346827
9647.73242 0.346875
9648.20898 0.346924
9648.68457 0.346972
9649.16113 0.347021
9649.63770 0.347069
9650.11426 0.347121
9650.59082 0.347183
9651.06738 0.347246
9651.54297 0.347308
9652.01953 0.347371
9652.49609 0.347433
9652.97266 0.347495
9653.44922 0.347558
9653.92578 0.34762
9654.40234 0.347683
9654.87988 0.347745
9655.35645 0.347808
9655.83301 0.347871
9656.30957 0.347933
9656.78613 0.347996
9657.26270 0.348058
9657.74023 0.348121
9658.21680 0.348183
9658.69336 0.348246
9659.16992 0.348309
9659.64746 0.348371
9660.12402 0.348434
9660.60059 0.348496
9661.07812 0.348559
9661.55469 0.348621
9662.03223 0.348684
9662.50879 0.348746
9662.98633 0.348809
9663.46289 0.348871
9663.94043 0.348934
9664.41699 0.348996
9664.89453 0.349059
9665.37207 0.349121
9665.84863 0.349184
9666.32617 0.349247
9666.80371 0.349309
9667.28027 0.349372
9667.75781 0.349434
9668.23535 0.349497
9668.71191 0.349559
9669.18945 0.349622
9669.66699 0.349685
9670.14453 0.349743
9670.62207 0.349791
9671.09961 0.34984
9671.57715 0.349888
9672.05469 0.349936
9672.53223 0.349985
9673.00977 0.350033
9673.48730 0.350081
9673.96484 0.35013
9674.44238 0.350178
9674.91992 0.350226
9675.39746 0.350275
9675.87500 0.350323
9676.35254 0.350371
9676.83105 0.35042
9677.30859 0.350468
9677.78613 0.350516
9678.26367 0.350565
9678.74219 0.350613
9679.21973 0.350662
9679.69727 0.35071
9680.17578 0.350763
9680.65332 0.350826
9681.13086 0.350888
9681.60938 0.350951
9682.08691 0.351013
9682.56543 0.351076
9683.04297 0.351138
9683.52148 0.351201
9683.99902 0.351263
9684.47754 0.351326
9684.95508 0.351388
9685.43359 0.351451
9685.91211 0.351514
9686.38965 0.351576
9686.86816 0.351639
9687.34668 0.351702
9687.82520 0.351764
9688.30273 0.351827
9688.78125 0.351889
9689.25977 0.351952
9689.73828 0.352015
9690.21680 0.352077
9690.69531 0.35214
9691.17383 0.352202
9691.65137 0.352265
9692.12988 0.352328
9692.60840 0.35239
9693.08691 0.352453
9693.56641 0.352515
9694.04492 0.352578
9694.52344 0.35264
9695.00195 0.352703
9695.48047 0.352766
9695.95898 0.352828
9696.43652 0.352891
9696.91602 0.352953
9697.39648 0.353016
9697.87402 0.353079
9698.35254 0.353141
9698.83203 0.353204
9699.31055 0.353267
9699.78906 0.35333
9700.26855 0.353384
9700.74707 0.353432
9701.22559 0.35348
9701.70508 0.353529
9702.18359 0.353577
9702.66309 0.353625
9703.14160 0.353635
9703.62109 0.353646
9704.10059 0.353656
9704.57910 0.353667
9705.05859 0.353677
9705.53711 0.353687
9706.01660 0.353698
9706.49609 0.353708
9706.97461 0.353719
9707.45410 0.353729
9707.93359 0.35374
9708.41309 0.35375
9708.89258 0.353761
9709.37109 0.353771
9709.85059 0.353782
9710.33008 0.353802
9710.80957 0.353827
9711.28906 0.353851
9711.76855 0.353876
9712.24805 0.353901
9712.72754 0.353925
9713.20703 0.35395
9713.68652 0.353975
9714.16602 0.354
9714.64648 0.354025
9715.12500 0.354049
9715.60547 0.354074
9716.08496 0.354099
9716.56445 0.354123
9717.04395 0.354148
9717.52344 0.354173
9718.00391 0.354198
9718.48340 0.354222
9718.96289 0.354247
9719.44336 0.354272
9719.92285 0.354297
9720.40234 0.354321
9720.88281 0.354346
9721.36230 0.35437
9721.84277 0.354395
9722.32227 0.35442
9722.80273 0.354444
9723.28223 0.354469
9723.76270 0.354493
9724.24219 0.354518
9724.72266 0.354542
9725.20312 0.354567
9725.68262 0.354592
9726.16309 0.354616
9726.64355 0.354641
9727.12305 0.354665
9727.60352 0.35469
9728.08398 0.354714
9728.56445 0.354739
9729.04492 0.354764
9729.52539 0.354788
9730.00488 0.354813
9730.48535 0.354823
9730.96582 0.354832
9731.44629 0.354842
9731.92676 0.354852
9732.40723 0.354862
9732.88770 0.354872
9733.36816 0.354882
9733.84863 0.354892
9734.32910 0.354902
9734.81055 0.354912
9735.29102 0.354922
9735.77148 0.354932
9736.25195 0.354942
9736.73242 0.354951
9737.21387 0.354961
9737.69434 0.354971
9738.17480 0.354981
9738.65527 0.354991
9739.13672 0.355001
9739.61719 0.355011
9740.09863 0.355023
9740.57910 0.355048
9741.05957 0.355072
9741.54102 0.355096
9742.02148 0.35512
9742.50293 0.355145
9742.98340 0.355169
9743.46484 0.355193
9743.94629 0.355217
9744.42676 0.355241
9744.90820 0.355266
9745.38867 0.35529
9745.87012 0.355314
9746.35156 0.355339
9746.83301 0.355363
9747.31348 0.355387
9747.79492 0.355411
9748.27637 0.355436
9748.75781 0.35546
9749.23926 0.355484
9749.71973 0.355508
9750.20117 0.355532
9750.68262 0.355556
9751.16406 0.355581
9751.64648 0.355605
9752.12695 0.355629
9752.60840 0.355653
9753.08984 0.355677
9753.57129 0.355701
9754.05273 0.355725
9754.53516 0.355749
9755.01660 0.355773
9755.49805 0.355797
9755.97852 0.355821
9756.46094 0.355845
9756.94336 0.35587
9757.42480 0.355894
9757.90625 0.355918
9758.38770 0.355942
9758.87012 0.355966
9759.35156 0.35599
9759.83398 0.356014
9760.31543 0.356038
9760.79688 0.356062
9761.27930 0.356086
9761.76074 0.35611
9762.24316 0.356134
9762.72461 0.356158
9763.20703 0.356181
9763.68945 0.356205
9764.17090 0.356229
9764.65332 0.356253
9765.13477 0.356277
9765.61719 0.356301
9766.09961 0.356325
9766.58203 0.356349
9767.06348 0.356373
9767.54590 0.356397
9768.02832 0.35642
9768.51074 0.356444
9768.99316 0.356468
9769.47461 0.356492
9769.95703 0.356516
9770.43945 0.356527
9770.92188 0.356536
9771.40430 0.356545
9771.88672 0.356554
9772.36914 0.356563
9772.85156 0.356572
9773.33398 0.356581
9773.81641 0.35659
9774.29980 0.356599
9774.78223 0.356608
9775.26465 0.356617
9775.74707 0.356626
9776.22852 0.356635
9776.71289 0.356644
9777.19531 0.356653
9777.67773 0.356662
9778.16016 0.356671
9778.64355 0.35668
9779.12598 0.356689
9779.60938 0.356698
9780.09180 0.35671
9780.57422 0.356734
9781.05762 0.356757
9781.54004 0.356781
9782.02344 0.356804
9782.50586 0.356828
9782.98926 0.356851
9783.47168 0.356875
9783.95508 0.356898
9784.43848 0.356922
9784.92090 0.356945
9785.40430 0.356969
9785.88770 0.356992
9786.37109 0.357016
9786.85352 0.357039
9787.33691 0.357063
9787.82031 0.357086
9788.30371 0.35711
9788.78711 0.357133
9789.26953 0.357157
9789.75293 0.357181
9790.23633 0.357204
9790.71973 0.357227
9791.20312 0.357251
9791.68652 0.357274
9792.16992 0.357297
9792.65332 0.35732
9793.13672 0.357344
9793.62012 0.357367
9794.10352 0.35739
9794.58789 0.357414
9795.07129 0.357437
9795.55469 0.35746
9796.03809 0.357484
9796.52246 0.357507
9797.00586 0.35753
9797.48926 0.357554
9797.97266 0.357577
9798.45703 0.3576
9798.94043 0.357624
9799.42383 0.357647
9799.90820 0.357671
9800.39160 0.357686
9800.87598 0.3577
9801.35938 0.357714
9801.84375 0.357729
9802.32715 0.357743
9802.81152 0.357749
9803.29590 0.357734
9803.77930 0.357718
9804.26367 0.357703
9804.74707 0.357687
9805.23145 0.357672
9805.71582 0.357656
9806.20020 0.357641
9806.68359 0.357625
9807.16797 0.35761
9807.65234 0.357594
9808.13672 0.357579
9808.62109 0.357564
9809.10352 0.357548
9809.58887 0.357533
9810.07324 0.357515
9810.55762 0.357484
9811.04199 0.357454
9811.52637 0.357423
9812.01074 0.357393
9812.49512 0.357362
9812.97852 0.357332
9813.46387 0.357301
9813.94922 0.357271
9814.43359 0.35724
9814.91797 0.357209
9815.40234 0.357179
9815.88672 0.357148
9816.37207 0.357118
9816.85645 0.357087
9817.34082 0.357057
9817.82520 0.357026
9818.31055 0.356996
9818.79492 0.356965
9819.28027 0.356934
9819.76465 0.356904
9820.24902 0.356881
9820.73438 0.356865
9821.21875 0.356849
9821.70410 0.356833
9822.18848 0.356817
9822.67383 0.356801
9823.15918 0.356784
9823.64355 0.356768
9824.12891 0.356752
9824.61426 0.356736
9825.09863 0.35672
9825.58398 0.356704
9826.06934 0.356688
9826.55371 0.356672
9827.03906 0.356656
9827.52441 0.35664
9828.00977 0.356624
9828.49512 0.356608
9828.98047 0.356591
9829.46582 0.356575
9829.95020 0.356559
9830.43555 0.356551
9830.92090 0.356543
9831.40625 0.356536
9831.89160 0.356528
9832.37793 0.356521
9832.86328 0.356513
9833.34863 0.356506
9833.83398 0.356498
9834.31934 0.356491
9834.80469 0.356483
9835.29004 0.356476
9835.77637 0.356468
9836.26172 0.356461
9836.74707 0.356453
9837.23242 0.356446
9837.71875 0.356438
9838.20410 0.35643
9838.69043 0.356423
9839.17578 0.356415
9839.66113 0.356408
9840.14746 0.3564
9840.63281 0.356392
9841.11914 0.356385
9841.60352 0.356377
9842.09082 0.356369
9842.57617 0.356361
9843.06152 0.356353
9843.54883 0.356345
9844.03418 0.356338
9844.52148 0.35633
9845.00684 0.356322
9845.49219 0.356314
9845.97852 0.356306
9846.46484 0.356298
9846.95117 0.356291
9847.43652 0.356283
9847.92285 0.356275
9848.40918 0.356267
9848.89648 0.356259
9849.38184 0.356251
9849.86816 0.356243
9850.35352 0.356224
9850.84082 0.356201
9851.32715 0.356178
9851.81348 0.356155
9852.29980 0.356132
9852.78613 0.356109
9853.27246 0.356086
9853.75879 0.356063
9854.24609 0.35604
9854.73242 0.356017
9855.21875 0.355994
9855.70508 0.355971
9856.19141 0.355948
9856.67871 0.355925
9857.16504 0.355902
9857.65137 0.355879
9858.13867 0.355856
9858.62500 0.355833
9859.11133 0.35581
9859.59863 0.355787
9860.08496 0.355767
9860.57227 0.355758
9861.05859 0.35575
9861.54590 0.355741
9862.03223 0.355732
9862.51953 0.355724
9863.00684 0.355715
9863.49316 0.355707
9863.98047 0.355698
9864.46777 0.35569
9864.95410 0.355681
9865.44141 0.355673
9865.92871 0.355664
9866.41602 0.355656
9866.90234 0.355647
9867.38965 0.355639
9867.87695 0.35563
9868.36426 0.355621
9868.85156 0.355613
9869.33887 0.355604
9869.82617 0.355596
9870.31348 0.355587
9870.80078 0.355578
9871.28809 0.355569
9871.77539 0.35556
9872.26270 0.355552
9872.75000 0.355543
9873.23730 0.355534
9873.72461 0.355525
9874.21191 0.355516
9874.70020 0.355507
9875.18652 0.355498
9875.67480 0.355489
9876.16211 0.35548
9876.65039 0.355471
9877.13770 0.355463
9877.62500 0.355453
9878.11328 0.355445
9878.60059 0.355436
9879.08789 0.355427
9879.57617 0.355418
9880.06348 0.355409
9880.55176 0.3554
9881.03906 0.35539
9881.52734 0.355381
9882.01465 0.355372
9882.50293 0.355363
9882.99121 0.355353
9883.47852 0.355344
9883.96680 0.355335
9884.45508 0.355325
9884.94238 0.355316
9885.43066 0.355307
9885.91895 0.355298
9886.40723 0.355288
9886.89453 0.355279
9887.38281 0.35527
9887.87109 0.35526
9888.35938 0.355251
9888.84766 0.355242
9889.33594 0.355233
9889.82422 0.355223
9890.31348 0.355204
9890.80078 0.35518
9891.28906 0.355155
9891.77734 0.355131
9892.26562 0.355106
9892.75391 0.355082
9893.24219 0.355058
9893.73047 0.355033
9894.21973 0.355009
9894.70801 0.354984
9895.19629 0.35496
9895.68457 0.354935
9896.17383 0.354911
9896.66211 0.354886
9897.15039 0.354862
9897.63965 0.354837
9898.12793 0.354813
9898.61621 0.354788
9899.10547 0.354764
9899.59375 0.354739
9900.08301 0.354717
9900.57129 0.354707
9901.06055 0.354697
9901.54883 0.354687
9902.03809 0.354677
9902.52734 0.354668
9903.01562 0.354707
9903.50488 0.354778
9903.99414 0.354849
9904.48242 0.354919
9904.97168 0.35499
9905.46094 0.35506
9905.94922 0.355131
9906.43848 0.355202
9906.92773 0.355272
9907.41699 0.355343
9907.90625 0.355414
9908.39648 0.355485
9908.88477 0.355556
9909.37402 0.355626
9909.86328 0.355697
9910.35254 0.355768
9910.84180 0.355838
9911.33105 0.355909
9911.82031 0.355979
9912.30957 0.35605
9912.79883 0.35612
9913.28809 0.356191
9913.77734 0.356261
9914.26660 0.356332
9914.75684 0.356402
9915.24609 0.356473
9915.73535 0.356544
9916.22461 0.356614
9916.71484 0.356685
9917.20410 0.356755
9917.69434 0.356826
9918.18359 0.356897
9918.67285 0.356967
9919.16309 0.357038
9919.65234 0.357108
9920.14258 0.357179
9920.63184 0.357249
9921.12207 0.35732
9921.61133 0.35739
9922.10156 0.357461
9922.59180 0.357531
9923.08105 0.357601
9923.57129 0.357672
9924.06152 0.357742
9924.55078 0.357813
9925.04102 0.357883
9925.53125 0.357954
9926.02148 0.358024
9926.51074 0.358094
9927.00098 0.358165
9927.49121 0.358235
9927.98145 0.358306
9928.47168 0.358376
9928.96191 0.358447
9929.45215 0.358518
9929.94238 0.358588
9930.43262 0.358658
9930.92285 0.358729
9931.41309 0.358799
9931.90332 0.358869
9932.39355 0.358939
9932.88379 0.35901
9933.37402 0.35908
9933.86523 0.35915
9934.35547 0.35922
9934.84570 0.359291
9935.33594 0.359361
9935.82715 0.359432
9936.31738 0.359502
9936.80762 0.359572
9937.29883 0.359643
9937.78906 0.359713
9938.27930 0.359783
9938.77148 0.359854
9939.26074 0.359924
9939.75195 0.359995
9940.24219 0.360057
9940.73340 0.360112
9941.22363 0.360167
9941.71484 0.360223
9942.20605 0.360277
9942.69629 0.360333
9943.18848 0.360388
9943.67871 0.360443
9944.16895 0.360498
9944.66016 0.360553
9945.15137 0.360608
9945.64258 0.360663
9946.13281 0.360718
9946.62402 0.360773
9947.11523 0.360828
9947.60645 0.360883
9948.09766 0.360938
9948.58887 0.360993
9949.08008 0.361048
9949.57129 0.361103
9950.06348 0.36116
9950.55371 0.36123
9951.04492 0.3613
9951.53613 0.36137
9952.02734 0.36144
9952.51855 0.36151
9953.00977 0.361579
9953.50098 0.36165
9953.99316 0.36172
9954.48438 0.361789
9954.97559 0.361859
9955.46680 0.361929
9955.95898 0.361999
9956.45020 0.362069
9956.94141 0.362139
9957.43359 0.362209
9957.92480 0.362279
9958.41699 0.36235
9958.90820 0.36242
9959.40039 0.36249
9959.89160 0.36256
9960.38379 0.36263
9960.87500 0.362699
9961.36719 0.362769
9961.85840 0.362839
9962.35059 0.362909
9962.84277 0.362978
9963.33398 0.363048
9963.82617 0.363118
9964.31836 0.363188
9964.80957 0.363258
9965.30176 0.363328
9965.79395 0.363397
9966.28613 0.363467
9966.77832 0.363537
9967.27148 0.363607
9967.76172 0.363677
9968.25391 0.363747
9968.74609 0.363817
9969.23828 0.363887
9969.73047 0.363957
9970.22266 0.364026
9970.71484 0.364096
9971.20703 0.364166
9971.70020 0.364236
9972.19238 0.364305
9972.68457 0.364375
9973.17676 0.364444
9973.66895 0.364514
9974.16113 0.364584
9974.65430 0.364654
9975.14648 0.364723
9975.63867 0.364793
9976.13184 0.364863
9976.62402 0.364932
9977.11621 0.365002
9977.60938 0.365072
9978.10156 0.365142
9978.59473 0.365212
9979.08691 0.365281
9979.58008 0.365351
9980.07227 0.365421
9980.56543 0.36549
9981.05762 0.36556
9981.55078 0.365629
9982.04297 0.365698
9982.53613 0.365768
9983.02930 0.365837
9983.52148 0.365907
9984.01465 0.365976
9984.50781 0.366046
9985.00098 0.366116
9985.49414 0.366185
9985.98633 0.366255
9986.47852 0.366324
9986.97266 0.366394
9987.46582 0.366463
9987.95898 0.366533
9988.45215 0.366602
9988.94531 0.366672
9989.43848 0.366742
9989.93164 0.366811
9990.42480 0.366867
9990.91797 0.366921
9991.41113 0.366975
9991.90430 0.367028
9992.39746 0.367082
9992.89062 0.367136
9993.38477 0.36719
9993.87793 0.367244
9994.37109 0.367297
9994.86426 0.367351
9995.35840 0.367405
9995.85156 0.367459
9996.34473 0.367512
9996.83887 0.367566
9997.33203 0.36762
9997.82617 0.367674
9998.31934 0.367727
9998.81152 0.367781
9999.30664 0.367835
9999.79980 0.367889
10000.29004 0.367958
10000.79004 0.368037
10001.28027 0.368116
10001.78027 0.368196
10002.26953 0.368275
10002.75977 0.368352
10003.25977 0.368387
10003.75000 0.368421
10004.24023 0.368456
10004.74023 0.36849
10005.23047 0.368524
10005.73047 0.368559
10006.21973 0.368594
10006.70996 0.368628
10007.20996 0.368662
10007.70020 0.368697
10008.20020 0.368731
10008.69043 0.368766
10009.17969 0.3688
10009.67969 0.368835
10010.16992 0.368869
10010.66992 0.368903
10011.16016 0.368937
10011.66016 0.368972
10012.15039 0.369006
10012.63965 0.36904
10013.13965 0.369074
10013.62988 0.369108
10014.12988 0.369143
10014.62012 0.369177
10015.12012 0.369211
10015.61035 0.369245
10016.11035 0.369279
10016.59961 0.369314
10017.08984 0.369348
10017.58984 0.369382
10018.08008 0.369416
10018.58008 0.369451
10019.07031 0.369485
10019.57031 0.369519
10020.05957 0.369553
10020.55957 0.369587
10021.04980 0.369621
10021.54980 0.369655
10022.04004 0.369689
10022.54004 0.369723
10023.03027 0.369757
10023.53027 0.369791
10024.01953 0.369825
10024.50977 0.369859
10025.00977 0.369893
10025.50000 0.369927
10026.00000 0.369961
10026.50000 0.369995
10026.99023 0.370029
10027.49023 0.370063
10027.98047 0.370097
10028.46973 0.370131
10028.96973 0.370165
10029.45996 0.370199
10029.95996 0.370233
10030.45996 0.370267
10030.95020 0.370301
10031.45020 0.370335
10031.94043 0.370368
10032.44043 0.370402
10032.92969 0.370436
10033.42969 0.37047
10033.91992 0.370503
10034.41992 0.370537
10034.91016 0.370571
10035.41016 0.370605
10035.90039 0.370638
10036.40039 0.370672
10036.90039 0.370706
10037.38965 0.37074
10037.88965 0.370774
10038.37988 0.370808
10038.87988 0.370841
10039.37012 0.370875
10039.87012 0.370909
10040.36035 0.370931
10040.86035 0.370949
10041.36035 0.370967
10041.84961 0.370984
10042.34961 0.371002
10042.83984 0.37102
10043.33984 0.371038
10043.83008 0.371055
10044.33008 0.371073
10044.83008 0.371091
10045.32031 0.371109
10045.82031 0.371126
10046.30957 0.371144
10046.80957 0.371162
10047.30957 0.37118
10047.79980 0.371198
10048.29980 0.371215
10048.79004 0.371233
10049.29004 0.371251
10049.79004 0.371269
10050.28027 0.371295
10050.78027 0.371328
10051.28027 0.371362
10051.76953 0.371395
10052.26953 0.371428
10052.75977 0.371462
10053.25977 0.371495
10053.75977 0.371528
10054.25000 0.371561
10054.75000 0.371595
10055.25000 0.371628
10055.74023 0.371661
10056.24023 0.371695
10056.74023 0.371728
10057.23047 0.371762
10057.73047 0.371795
10058.23047 0.371828
10058.71973 0.371862
10059.21973 0.371895
10059.70996 0.371928
10060.20996 0.371961
10060.70996 0.371995
10061.20996 0.372028
10061.70020 0.372061
10062.20020 0.372094
10062.70020 0.372127
10063.19043 0.37216
10063.69043 0.372193
10064.19043 0.372226
10064.67969 0.372259
10065.17969 0.372292
10065.67969 0.372325
10066.16992 0.372358
10066.66992 0.372392
10067.16992 0.372425
10067.66016 0.372458
10068.16016 0.372491
10068.66016 0.372524
10069.16016 0.372557
10069.65039 0.37259
10070.15039 0.372623
10070.65039 0.372657
10071.13965 0.372689
10071.63965 0.372722
10072.13965 0.372755
10072.63965 0.372788
10073.12988 0.372821
10073.62988 0.372854
10074.12988 0.372887
10074.62988 0.37292
10075.12012 0.372952
10075.62012 0.372985
10076.12012 0.373018
10076.62012 0.373051
10077.11035 0.373084
10077.61035 0.373117
10078.11035 0.37315
10078.61035 0.373183
10079.09961 0.373216
10079.59961 0.373249
10080.09961 0.373281
10080.59961 0.373314
10081.08984 0.373347
10081.58984 0.373379
10082.08984 0.373412
10082.58984 0.373445
10083.08008 0.373478
10083.58008 0.37351
10084.08008 0.373543
10084.58008 0.373576
10085.08008 0.373608
10085.57031 0.373641
10086.07031 0.373674
10086.57031 0.373706
10087.07031 0.373739
10087.57031 0.373772
10088.05957 0.373804
10088.55957 0.373837
10089.05957 0.37387
10089.55957 0.373903
10090.05957 0.373935
10090.54980 0.373968
10091.04980 0.374
10091.54980 0.374033
10092.04980 0.374065
10092.54980 0.374098
10093.04004 0.37413
10093.54004 0.374163
10094.04004 0.374195
10094.54004 0.374228
10095.04004 0.37426
10095.54004 0.374293
10096.04004 0.374325
10096.53027 0.374358
10097.03027 0.37439
10097.53027 0.374423
10098.03027 0.374455
10098.53027 0.374488
10099.03027 0.37452
10099.51953 0.374553
10100.01953 0.374585
10100.51953 0.374618
10101.01953 0.37465
10101.51953 0.374682
10102.01953 0.374714
10102.51953 0.374747
10103.01953 0.374787
10103.50977 0.374834
10104.00977 0.374882
10104.50977 0.374929
10105.00977 0.374977
10105.50977 0.375025
10106.00977 0.375072
10106.50977 0.37512
10107.00977 0.375168
10107.50977 0.375215
10108.00000 0.375263
10108.50000 0.375311
10109.00000 0.375358
10109.50000 0.375406
10110.00000 0.375454
10110.50000 0.375485
10111.00000 0.375517
10111.50000 0.375548
10112.00000 0.375579
10112.50000 0.375611
10113.00000 0.375642
10113.50000 0.375674
10114.00000 0.375705
10114.49023 0.375736
10114.99023 0.375768
10115.49023 0.375799
10115.99023 0.375831
10116.49023 0.375862
10116.99023 0.375893
10117.49023 0.375925
10117.99023 0.375956
10118.49023 0.375988
10118.99023 0.376019
10119.49023 0.376051
10119.99023 0.376082
10120.49023 0.376129
10120.99023 0.376176
10121.49023 0.376223
10121.99023 0.376271
10122.49023 0.376318
10122.99023 0.376365
10123.49023 0.376413
10123.99023 0.37646
10124.49023 0.376507
10124.99023 0.376555
10125.49023 0.376602
10125.99023 0.37665
10126.49023 0.376697
10126.99023 0.376744
10127.49023 0.376792
10127.99023 0.376839
10128.49023 0.376886
10128.99023 0.376934
10129.49023 0.376981
10129.99023 0.377029
10130.49023 0.377076
10130.99023 0.377123
10131.49023 0.37717
10131.99023 0.377217
10132.49023 0.377264
10132.99023 0.377312
10133.49023 0.377359
10133.99023 0.377406
10134.49023 0.377453
10134.99023 0.377501
10135.49023 0.377548
10135.99023 0.377595
10136.49023 0.377642
10136.99023 0.377689
10137.49023 0.377737
10137.99023 0.377784
10138.49023 0.377831
10138.99023 0.377878
10139.49023 0.377926
10139.99023 0.377973
10140.49023 0.37802
10140.99023 0.378067
10141.50000 0.378114
10142.00000 0.378161
10142.50000 0.378208
10143.00000 0.378255
10143.50000 0.378302
10144.00000 0.378349
10144.50000 0.378396
10145.00000 0.378443
10145.50000 0.37849
10146.00000 0.378538
10146.50000 0.378585
10147.00000 0.378632
10147.50000 0.378679
10148.00977 0.378726
10148.50977 0.378773
10149.00977 0.37882
10149.50977 0.378867
10150.00977 0.378915
10150.50977 0.378961
10151.00977 0.379008
10151.50977 0.379055
10152.00977 0.379102
10152.51953 0.379149
10153.01953 0.379196
10153.51953 0.379243
10154.01953 0.37929
10154.51953 0.379337
10155.01953 0.379384
10155.51953 0.379431
10156.03027 0.379478
10156.53027 0.379525
10157.03027 0.379572
10157.53027 0.379619
10158.03027 0.379666
10158.53027 0.379713
10159.03027 0.37976
10159.54004 0.379807
10160.04004 0.379854
10160.54004 0.379901
10161.04004 0.379948
10161.54004 0.379995
10162.04004 0.380042
10162.54004 0.380088
10163.04980 0.380135
10163.54980 0.380182
10164.04980 0.380229
10164.54980 0.380276
10165.04980 0.380323
10165.55957 0.380369
10166.05957 0.380416
10166.55957 0.380463
10167.05957 0.38051
10167.55957 0.380557
10168.07031 0.380604
10168.57031 0.380651
10169.07031 0.380698
10169.57031 0.380745
10170.07031 0.380791
10170.58008 0.380838
10171.08008 0.380885
10171.58008 0.380931
10172.08008 0.380978
10172.58008 0.381025
10173.08984 0.381071
10173.58984 0.381118
10174.08984 0.381165
10174.58984 0.381211
10175.09961 0.381258
10175.59961 0.381305
10176.09961 0.381352
10176.59961 0.381398
10177.11035 0.381445
10177.61035 0.381492
10178.11035 0.381539
10178.61035 0.381585
10179.12012 0.381632
10179.62012 0.381679
10180.12012 0.381722
10180.62012 0.381752
10181.12988 0.381782
10181.62988 0.381812
10182.12988 0.381842
10182.62988 0.381872
10183.13965 0.381902
10183.63965 0.381933
10184.13965 0.381963
10184.63965 0.381993
10185.15039 0.382023
10185.65039 0.382053
10186.15039 0.382083
10186.66016 0.382113
10187.16016 0.382143
10187.66016 0.382173
10188.16992 0.382204
10188.66992 0.382234
10189.16992 0.382264
10189.66992 0.382294
10190.17969 0.38233
10190.67969 0.382376
10191.17969 0.382423
10191.69043 0.382469
10192.19043 0.382516
10192.69043 0.382562
10193.20020 0.382608
10193.70020 0.382655
10194.20020 0.382701
10194.70996 0.382748
10195.20996 0.382794
10195.70996 0.382841
10196.21973 0.382887
10196.71973 0.382934
10197.21973 0.38298
10197.73047 0.383027
10198.23047 0.383073
10198.73047 0.38312
10199.24023 0.383166
10199.74023 0.383213
10200.24023 0.38326
10200.75000 0.383308
10201.25000 0.383355
10201.75000 0.383403
10202.25977 0.38345
10202.75977 0.383498
10203.26953 0.383521
10203.76953 0.383543
10204.26953 0.383564
10204.78027 0.383585
10205.28027 0.383607
10205.79004 0.383628
10206.29004 0.38365
10206.79004 0.383671
10207.29980 0.383693
10207.79980 0.383714
10208.29980 0.383736
10208.80957 0.383757
10209.30957 0.383779
10209.82031 0.3838
10210.32031 0.383821
10210.83008 0.383843
10211.33008 0.383864
10211.83008 0.383885
10212.33984 0.383907
10212.83984 0.383928
10213.34961 0.383949
10213.84961 0.38397
10214.34961 0.383992
10214.86035 0.384013
10215.36035 0.384035
10215.87012 0.384056
10216.37012 0.384077
10216.87988 0.384098
10217.37988 0.38412
10217.87988 0.384141
10218.38965 0.384162
10218.88965 0.384184
10219.40039 0.384205
10219.90039 0.384226
10220.41016 0.384247
10220.91016 0.384269
10221.41992 0.38429
10221.91992 0.384311
10222.42969 0.384332
10222.92969 0.384353
10223.44043 0.384374
10223.94043 0.384395
10224.44043 0.384416
10224.95020 0.384437
10225.45020 0.384458
10225.95996 0.384479
10226.45996 0.384501
10226.96973 0.384522
10227.46973 0.384543
10227.98047 0.384564
10228.48047 0.384585
10228.99023 0.384606
10229.49023 0.384627
10230.00000 0.384648
10230.50000 0.384669
10231.00977 0.38469
10231.50977 0.384711
10232.01953 0.384732
10232.51953 0.384753
10233.03027 0.384774
10233.53027 0.384795
10234.04004 0.384815
10234.54004 0.384836
10235.04980 0.384857
10235.55957 0.384878
10236.05957 0.384899
10236.57031 0.38492
10237.07031 0.384941
10237.58008 0.384962
10238.08008 0.384983
10238.58984 0.385004
10239.08984 0.385025
10239.59961 0.385045
10240.09961 0.385066
10240.61035 0.385087
10241.12012 0.385108
10241.62012 0.385128
10242.12988 0.385149
10242.62988 0.38517
10243.13965 0.385191
10243.63965 0.385211
10244.15039 0.385232
10244.66016 0.385253
10245.16016 0.385273
10245.66992 0.385294
10246.16992 0.385315
10246.67969 0.385336
10247.17969 0.385356
10247.69043 0.385377
10248.20020 0.385398
10248.70020 0.385418
10249.20996 0.385439
10249.70996 0.38546
10250.21973 0.385481
10250.73047 0.385501
10251.23047 0.385522
10251.74023 0.385542
10252.25000 0.385563
10252.75000 0.385583
10253.25977 0.385604
10253.75977 0.385624
10254.26953 0.385645
10254.78027 0.385666
10255.28027 0.385686
10255.79004 0.385707
10256.29004 0.385727
10256.79980 0.385748
10257.30957 0.385768
10257.80957 0.385789
10258.32031 0.38581
10258.83008 0.38583
10259.33008 0.385851
10259.83984 0.385871
10260.34961 0.385892
10260.84961 0.385912
10261.36035 0.385932
10261.87012 0.385953
10262.37012 0.385973
10262.87988 0.385993
10263.38965 0.386014
10263.88965 0.386034
10264.40039 0.386055
10264.91016 0.386075
10265.41016 0.386095
10265.91992 0.386116
10266.42969 0.386136
10266.92969 0.386157
10267.44043 0.386177
10267.95020 0.386197
10268.45020 0.386218
10268.95996 0.386238
10269.46973 0.386258
10269.98047 0.386279
10270.48047 0.386299
10270.99023 0.386319
10271.50000 0.386339
10272.00000 0.38636
10272.50977 0.38638
10273.01953 0.3864
10273.53027 0.38642
10274.03027 0.38644
10274.54004 0.38646
10275.04980 0.386481
10275.54980 0.386501
10276.05957 0.386521
10276.57031 0.386541
10277.08008 0.386562
10277.58008 0.386582
10278.08984 0.386602
10278.59961 0.386622
10279.11035 0.386642
10279.61035 0.386663
10280.12012 0.386679
10280.62988 0.386682
10281.13965 0.386685
10281.63965 0.386688
10282.15039 0.386692
10282.66016 0.386695
10283.16992 0.386698
10283.66992 0.386701
10284.17969 0.386704
10284.69043 0.386707
10285.20020 0.38671
10285.70996 0.386714
10286.20996 0.386717
10286.71973 0.38672
10287.23047 0.386723
10287.74023 0.386726
10288.24023 0.386729
10288.75000 0.386733
10289.25977 0.386736
10289.76953 0.386739
10290.28027 0.386751
10290.78027 0.386771
10291.29004 0.386791
10291.79980 0.386811
10292.30957 0.38683
10292.82031 0.38685
10293.33008 0.38687
10293.83008 0.38689
10294.33984 0.38691
10294.84961 0.38693
10295.36035 0.38695
10295.87012 0.386969
10296.37012 0.386989
10296.87988 0.387009
10297.38965 0.387029
10297.90039 0.387049
10298.41016 0.387069
10298.91992 0.387089
10299.41992 0.387109
10299.92969 0.387128
10300.44043 0.387148
10300.95020 0.387168
10301.45996 0.387188
10301.96973 0.387207
10302.48047 0.387227
10302.99023 0.387257
10303.49023 0.387309
10304.00000 0.387361
10304.50977 0.387414
10305.01953 0.387466
10305.53027 0.387518
10306.04004 0.38757
10306.54980 0.387622
10307.04980 0.387674
10307.55957 0.387727
10308.07031 0.387779
10308.58008 0.387831
10309.08984 0.387883
10309.59961 0.387935
10310.11035 0.387988
10310.62012 0.38804
10311.12988 0.388092
10311.63965 0.388144
10312.13965 0.388196
10312.65039 0.388248
10313.16016 0.3883
10313.66992 0.388352
10314.17969 0.388404
10314.69043 0.388456
10315.20020 0.388508
10315.70996 0.38856
10316.21973 0.388613
10316.73047 0.388665
10317.24023 0.388717
10317.75000 0.388769
10318.25977 0.388821
10318.76953 0.388873
10319.26953 0.388926
10319.78027 0.388978
10320.29004 0.38903
10320.79980 0.389082
10321.30957 0.389134
10321.82031 0.389186
10322.33008 0.389238
10322.83984 0.38929
10323.34961 0.389342
10323.86035 0.389394
10324.37012 0.389446
10324.87988 0.389498
10325.38965 0.38955
10325.90039 0.389602
10326.41016 0.389654
10326.91992 0.389707
10327.42969 0.389759
10327.94043 0.389811
10328.45020 0.389863
10328.95996 0.389915
10329.46973 0.389967
10329.98047 0.390019
10330.49023 0.390071
10331.00000 0.390123
10331.50977 0.390175
10332.01953 0.390227
10332.53027 0.390279
10333.04004 0.390331
10333.54980 0.390383
10334.05957 0.390435
10334.57031 0.390487
10335.08008 0.390539
10335.58984 0.390591
10336.09961 0.390643
10336.61035 0.390695
10337.12012 0.390747
10337.62988 0.390799
10338.13965 0.390851
10338.65039 0.390904
10339.16016 0.390956
10339.66992 0.391008
10340.17969 0.39106
10340.69043 0.391112
10341.20020 0.391164
10341.70996 0.391216
10342.23047 0.391268
10342.74023 0.39132
10343.25000 0.391372
10343.75977 0.391424
10344.26953 0.391476
10344.78027 0.391528
10345.29004 0.39158
10345.79980 0.391632
10346.30957 0.391684
10346.82031 0.391736
10347.33008 0.391788
10347.83984 0.39184
10348.34961 0.391892
10348.87012 0.391944
10349.37988 0.391996
10349.88965 0.392048
10350.40039 0.3921
10350.91016 0.392152
10351.41992 0.392204
10351.92969 0.392256
10352.44043 0.392308
10352.95020 0.39236
10353.45996 0.392412
10353.98047 0.392464
10354.49023 0.392516
10355.00000 0.392568
10355.50977 0.39262
10356.01953 0.392672
10356.53027 0.392724
10357.04004 0.392776
10357.54980 0.392828
10358.07031 0.39288
10358.58008 0.392932
10359.08984 0.392984
10359.59961 0.393036
10360.11035 0.393088
10360.62012 0.39314
10361.12988 0.393192
10361.65039 0.393244
10362.16016 0.393296
10362.66992 0.393348
10363.17969 0.3934
10363.69043 0.393452
10364.20020 0.393504
10364.71973 0.393556
10365.23047 0.393607
10365.74023 0.393659
10366.25000 0.393711
10366.75977 0.393763
10367.26953 0.393815
10367.79004 0.393867
10368.29980 0.393919
10368.80957 0.393971
10369.32031 0.394024
10369.83008 0.394076
10370.34961 0.394128
10370.86035 0.394179
10371.37012 0.394231
10371.87988 0.394283
10372.38965 0.394335
10372.91016 0.394387
10373.41992 0.394439
10373.92969 0.394491
10374.44043 0.394543
10374.95996 0.394595
10375.46973 0.394647
10375.98047 0.394698
10376.49023 0.39475
10377.00000 0.394802
10377.51953 0.394854
10378.03027 0.394906
10378.54004 0.394958
10379.04980 0.39501
10379.57031 0.395062
10380.08008 0.395114
10380.58984 0.395166
10381.09961 0.395218
10381.62012 0.39527
10382.12988 0.395322
10382.63965 0.395374
10383.15039 0.395425
10383.66992 0.395477
10384.17969 0.395529
10384.69043 0.395581
10385.20020 0.395633
10385.71973 0.395685
10386.23047 0.395737
10386.74023 0.395789
10387.25000 0.395841
10387.76953 0.395893
10388.28027 0.395945
10388.79004 0.395997
10389.30957 0.396049
10389.82031 0.396101
10390.33008 0.396153
10390.84961 0.396205
10391.36035 0.396257
10391.87012 0.396309
10392.37988 0.396361
10392.90039 0.396412
10393.41016 0.396464
10393.91992 0.396516
10394.44043 0.396568
10394.95020 0.39662
10395.45996 0.396672
10395.98047 0.396724
10396.49023 0.396776
10397.00000 0.396828
10397.51953 0.39688
10398.03027 0.396932
10398.54004 0.396983
10399.05957 0.397035
10399.57031 0.397087
10400.08008 0.39714
10400.59961 0.397192
10401.11035 0.397245
10401.62012 0.397297
10402.13965 0.39735
10402.65039 0.397403
10403.16992 0.397406
10403.67969 0.397379
10404.19043 0.397352
10404.70996 0.397325
10405.21973 0.397298
10405.73047 0.397271
10406.25000 0.397244
10406.75977 0.397216
10407.26953 0.397189
10407.79004 0.397162
10408.29980 0.397135
10408.82031 0.397108
10409.33008 0.397081
10409.83984 0.397054
10410.36035 0.397026
10410.87012 0.396999
10411.38965 0.396972
10411.90039 0.396944
10412.41016 0.396917
10412.92969 0.39689
10413.44043 0.396862
10413.95996 0.396835
10414.46973 0.396808
10414.98047 0.39678
10415.50000 0.396753
10416.00977 0.396726
10416.53027 0.396698
10417.04004 0.396671
10417.55957 0.396643
10418.07031 0.396616
10418.58008 0.396589
10419.09961 0.396561
10419.61035 0.396534
10420.12988 0.396506
10420.63965 0.396479
10421.16016 0.396451
10421.66992 0.396423
10422.19043 0.396396
10422.70020 0.396368
10423.20996 0.396341
10423.73047 0.396313
10424.24023 0.396286
10424.75977 0.396258
10425.26953 0.39623
10425.79004 0.396202
10426.29980 0.396175
10426.82031 0.396147
10427.33008 0.39612
10427.84961 0.396092
10428.36035 0.396064
10428.87988 0.396037
10429.38965 0.396009
10429.91016 0.395981
10430.41992 0.395953
10430.94043 0.395925
10431.45020 0.395898
10431.96973 0.39587
10432.48047 0.395842
10433.00000 0.395814
10433.50977 0.395786
10434.03027 0.395758
10434.54004 0.39573
10435.05957 0.395703
10435.57031 0.395675
10436.08984 0.395647
10436.59961 0.395619
10437.12012 0.395591
10437.62988 0.395563
10438.15039 0.395535
10438.66016 0.395507
10439.17969 0.395479
10439.69043 0.395451
10440.20996 0.395423
10440.71973 0.395395
10441.24023 0.395367
10441.75977 0.395339
10442.26953 0.395311
10442.79004 0.395283
10443.29980 0.395255
10443.82031 0.395227
10444.33008 0.395199
10444.84961 0.39517
10445.37012 0.395142
10445.87988 0.395114
10446.40039 0.395086
10446.91016 0.395058
10447.42969 0.39503
10447.94043 0.395002
10448.45996 0.394973
10448.98047 0.394945
10449.49023 0.394917
10450.00977 0.394889
10450.51953 0.394843
10451.04004 0.394797
10451.55957 0.394751
10452.07031 0.394705
10452.58984 0.394659
10453.09961 0.394613
10453.62012 0.394568
10454.13965 0.394522
10454.65039 0.394476
10455.16992 0.39443
10455.67969 0.394384
10456.20020 0.394338
10456.71973 0.394292
10457.23047 0.394246
10457.75000 0.3942
10458.26953 0.394154
10458.78027 0.394108
10459.29980 0.394062
10459.80957 0.394017
10460.33008 0.393982
10460.84961 0.393953
10461.36035 0.393925
10461.87988 0.393896
10462.40039 0.393868
10462.91016 0.393839
10463.42969 0.39381
10463.95020 0.393782
10464.45996 0.393753
10464.98047 0.393725
10465.50000 0.393696
10466.00977 0.393668
10466.53027 0.393639
10467.04980 0.39361
10467.55957 0.393582
10468.08008 0.393553
10468.59961 0.393524
10469.11035 0.393496
10469.62988 0.393467
10470.15039 0.393438
10470.66016 0.39341
10471.17969 0.393381
10471.70020 0.393352
10472.20996 0.393323
10472.73047 0.393294
10473.25000 0.393266
10473.76953 0.393237
10474.28027 0.393208
10474.79980 0.393179
10475.32031 0.393151
10475.83008 0.393122
10476.34961 0.393093
10476.87012 0.393064
10477.38965 0.393035
10477.90039 0.393006
10478.41992 0.392977
10478.94043 0.392949
10479.45996 0.39292
10479.96973 0.392891
10480.49023 0.392862
10481.00977 0.392833
10481.53027 0.392804
10482.04004 0.392775
10482.55957 0.392746
10483.08008 0.392717
10483.59961 0.392688
10484.11035 0.392659
10484.62988 0.39263
10485.15039 0.392601
10485.66992 0.392572
10486.17969 0.392543
10486.70020 0.392513
10487.21973 0.392484
10487.74023 0.392455
10488.25000 0.392426
10488.76953 0.392397
10489.29004 0.392368
10489.80957 0.392339
10490.33008 0.39231
10490.83984 0.39228
10491.36035 0.392251
10491.87988 0.392222
10492.40039 0.392193
10492.91992 0.392163
10493.42969 0.392134
10493.95020 0.392105
10494.46973 0.392076
10494.99023 0.392047
10495.50977 0.392017
10496.01953 0.391988
10496.54004 0.391958
10497.05957 0.391929
10497.58008 0.3919
10498.09961 0.391871
10498.62012 0.391841
10499.12988 0.391812
10499.65039 0.391783
10500.16992 0.391748
10500.69043 0.391702
10501.20996 0.391656
10501.73047 0.39161
10502.24023 0.391564
10502.75977 0.391519
10503.28027 0.391561
10503.79980 0.391629
10504.32031 0.391697
10504.83984 0.391765
10505.36035 0.391833
10505.87988 0.391901
10506.38965 0.391969
10506.91016 0.392037
10507.42969 0.392105
10507.95020 0.392173
10508.46973 0.392241
10508.99023 0.392309
10509.50977 0.392377
10510.01953 0.392445
10510.54004 0.392512
10511.05957 0.39258
10511.58008 0.392648
10512.09961 0.392716
10512.62012 0.392784
10513.13965 0.392852
10513.66016 0.39292
10514.17969 0.392988
10514.70020 0.393056
10515.20996 0.393124
10515.73047 0.393192
10516.25000 0.39326
10516.76953 0.393328
10517.29004 0.393396
10517.80957 0.393464
10518.33008 0.393532
10518.84961 0.3936
10519.37012 0.393668
10519.88965 0.393736
10520.41016 0.393804
10520.92969 0.393872
10521.45020 0.39394
10521.96973 0.394008
10522.49023 0.394076
10523.00000 0.394144
10523.51953 0.394212
10524.04004 0.39428
10524.55957 0.394348
10525.08008 0.394415
10525.59961 0.394483
10526.12012 0.394551
10526.63965 0.394619
10527.16016 0.394687
10527.67969 0.394755
10528.20020 0.394823
10528.71973 0.394892
10529.24023 0.39496
10529.75977 0.395027
10530.28027 0.395095
10530.79980 0.395164
10531.32031 0.395232
10531.83984 0.3953
10532.36035 0.395368
10532.87988 0.395435
10533.40039 0.395504
10533.91992 0.395572
10534.44043 0.39564
10534.95996 0.395708
10535.48047 0.395776
10536.00000 0.395844
10536.51953 0.395912
10537.04004 0.39598
10537.55957 0.396048
10538.08008 0.396116
10538.59961 0.396184
10539.12012 0.396252
10539.63965 0.39632
10540.16016 0.396388
10540.67969 0.396456
10541.20020 0.396524
10541.71973 0.396592
10542.24023 0.39666
10542.75977 0.396728
10543.29004 0.396796
10543.80957 0.396864
10544.33008 0.396932
10544.84961 0.397
10545.37012 0.397069
10545.88965 0.397137
10546.41016 0.397205
10546.92969 0.397273
10547.45020 0.397341
10547.96973 0.397409
10548.49023 0.397477
10549.00977 0.397545
10549.53027 0.397613
10550.04980 0.397681
10550.58008 0.397749
10551.09961 0.397817
10551.62012 0.397885
10552.13965 0.397954
10552.66016 0.398021
10553.17969 0.398089
10553.70020 0.398158
10554.21973 0.398226
10554.74023 0.398294
10555.25977 0.398362
10555.79004 0.39843
10556.30957 0.398498
10556.83008 0.398566
10557.34961 0.398634
10557.87012 0.398703
10558.38965 0.398771
10558.91016 0.398839
10559.42969 0.398907
10559.95996 0.398975
10560.48047 0.399043
10561.00000 0.399112
10561.51953 0.39918
10562.04004 0.399248
10562.55957 0.399316
10563.08008 0.399384
10563.59961 0.399452
10564.12988 0.39952
10564.65039 0.399589
10565.16992 0.399657
10565.69043 0.399725
10566.20996 0.399793
10566.73047 0.399861
10567.25977 0.399929
10567.78027 0.399998
10568.29980 0.400066
10568.82031 0.400134
10569.33984 0.400202
10569.87012 0.40027
10570.38965 0.400339
10570.91016 0.400407
10571.42969 0.400475
10571.95020 0.400543
10572.46973 0.400611
10573.00000 0.400679
10573.51953 0.400748
10574.04004 0.400816
10574.55957 0.400884
10575.08008 0.400952
10575.61035 0.40102
10576.12988 0.401089
10576.65039 0.401157
10577.16992 0.401225
10577.70020 0.401293
10578.21973 0.401361
10578.74023 0.40143
10579.25977 0.401498
10579.78027 0.401566
10580.30957 0.401634
10580.83008 0.401703
10581.34961 0.401771
10581.87012 0.401839
10582.40039 0.401907
10582.91992 0.401976
10583.44043 0.402044
10583.95996 0.402112
10584.49023 0.40218
10585.00977 0.402249
10585.53027 0.402317
10586.04980 0.402385
10586.58008 0.402454
10587.09961 0.402522
10587.62012 0.40259
10588.13965 0.402658
10588.66992 0.402727
10589.19043 0.402795
10589.70996 0.402863
10590.24023 0.402931
10590.75977 0.403
10591.28027 0.403068
10591.79980 0.403136
10592.33008 0.403205
10592.84961 0.403273
10593.37012 0.403341
10593.90039 0.40341
10594.41992 0.403478
10594.94043 0.403546
10595.46973 0.403615
10595.99023 0.403683
10596.50977 0.403751
10597.04004 0.40382
10597.55957 0.403888
10598.08008 0.403956
10598.59961 0.404025
10599.12988 0.404093
10599.65039 0.404162
10600.16992 0.40423
10600.70020 0.404296
10601.21973 0.404363
10601.74023 0.40443
10602.26953 0.404497
10602.79004 0.404564
10603.30957 0.404543
10603.83984 0.404499
10604.36035 0.404454
10604.88965 0.404409
10605.41016 0.404365
10605.92969 0.40432
10606.45996 0.404276
10606.98047 0.404231
10607.50000 0.404187
10608.03027 0.404142
10608.54980 0.404097
10609.07031 0.404053
10609.59961 0.404008
10610.12012 0.403964
10610.65039 0.403919
10611.16992 0.403875
10611.69043 0.40383
10612.21973 0.403785
10612.74023 0.403741
10613.26953 0.403696
10613.79004 0.403651
10614.30957 0.403606
10614.83984 0.403562
10615.36035 0.403517
10615.88965 0.403472
10616.41016 0.403428
10616.92969 0.403383
10617.45996 0.403338
10617.98047 0.403294
10618.50977 0.403249
10619.03027 0.403204
10619.54980 0.40316
10620.08008 0.403115
10620.59961 0.40307
10621.12988 0.403026
10621.65039 0.402981
10622.17969 0.402936
10622.70020 0.402891
10623.23047 0.402847
10623.75000 0.402802
10624.26953 0.402757
10624.79980 0.402712
10625.32031 0.402668
10625.84961 0.402623
10626.37012 0.402578
10626.90039 0.402533
10627.41992 0.402489
10627.95020 0.402444
10628.46973 0.402399
10629.00000 0.402354
10629.51953 0.402309
10630.04980 0.402265
10630.57031 0.40222
10631.09961 0.402175
10631.62012 0.40213
10632.15039 0.402085
10632.66992 0.402041
10633.20020 0.401996
10633.71973 0.401951
10634.25000 0.401906
10634.76953 0.401861
10635.29004 0.401817
10635.82031 0.401772
10636.34961 0.401727
10636.87012 0.401682
10637.40039 0.401637
10637.91992 0.401593
10638.45020 0.401548
10638.96973 0.401503
10639.50000 0.401458
10640.01953 0.401413
10640.54980 0.401368
10641.07031 0.401323
10641.59961 0.401279
10642.12012 0.401234
10642.65039 0.401189
10643.16992 0.401144
10643.70020 0.401099
10644.21973 0.401054
10644.75000 0.401009
10645.28027 0.400964
10645.79980 0.400919
10646.33008 0.400874
10646.84961 0.40083
10647.37988 0.400784
10647.90039 0.40074
10648.42969 0.400695
10648.95996 0.40065
10649.48047 0.400605
10650.00977 0.40056
10650.53027 0.400515
10651.05957 0.40047
10651.58008 0.400425
10652.11035 0.40038
10652.63965 0.400335
10653.16016 0.40029
10653.69043 0.400245
10654.20996 0.4002
10654.74023 0.400155
10655.26953 0.40011
10655.79004 0.400065
10656.32031 0.40002
10656.83984 0.399975
10657.37012 0.39993
10657.90039 0.399885
10658.41992 0.39984
10658.95020 0.399795
10659.48047 0.39975
10660.00000 0.399705
10660.53027 0.39966
10661.04980 0.399615
10661.58008 0.39957
10662.11035 0.399525
10662.62988 0.39948
10663.16016 0.399435
10663.69043 0.39939
10664.20996 0.399345
10664.74023 0.3993
10665.26953 0.399255
10665.79004 0.39921
10666.32031 0.399165
10666.84961 0.39912
10667.37012 0.399075
10667.90039 0.39903
10668.42969 0.398985
10668.95020 0.39894
10669.48047 0.398894
10670.00977 0.398849
10670.53027 0.398804
10671.05957 0.398759
10671.58984 0.398714
10672.11035 0.398669
10672.63965 0.398624
10673.16992 0.398579
10673.69043 0.398534
10674.21973 0.398489
10674.75000 0.398444
10675.26953 0.398399
10675.79980 0.398353
10676.33008 0.398308
10676.86035 0.398263
10677.37988 0.398218
10677.91016 0.398173
10678.44043 0.398128
10678.95996 0.398083
10679.49023 0.398038
10680.01953 0.397993
10680.54980 0.397966
10681.07031 0.397939
10681.59961 0.397912
10682.12988 0.397885
10682.66016 0.397858
10683.17969 0.39783
10683.70996 0.397803
10684.24023 0.397776
10684.76953 0.397749
10685.29004 0.397722
10685.82031 0.397695
10686.34961 0.397668
10686.87988 0.397641
10687.40039 0.397613
10687.92969 0.397586
10688.45996 0.397559
10688.99023 0.397532
10689.50977 0.397504
10690.04004 0.397476
10690.57031 0.397431
10691.09961 0.397386
10691.62012 0.39734
10692.15039 0.397295
10692.67969 0.39725
10693.20996 0.397205
10693.74023 0.397159
10694.25977 0.397114
10694.79004 0.397069
10695.32031 0.397024
10695.84961 0.396978
10696.37988 0.396933
10696.91016 0.396888
10697.42969 0.396843
10697.95996 0.396797
10698.49023 0.396752
10699.01953 0.396707
10699.54980 0.396662
10700.07031 0.396616
10700.59961 0.396571
10701.12988 0.396526
10701.66016 0.39648
10702.19043 0.396435
10702.71973 0.39639
10703.24023 0.3964
10703.76953 0.396448
10704.29980 0.396496
10704.83008 0.396545
10705.36035 0.396593
10705.88965 0.396641
10706.41992 0.396689
10706.94043 0.396738
10707.46973 0.396786
10708.00000 0.396834
10708.53027 0.396883
10709.05957 0.396931
10709.58984 0.396979
10710.12012 0.397027
10710.63965 0.397076
10711.16992 0.397124
10711.70020 0.397172
10712.23047 0.39722
10712.75977 0.397269
10713.29004 0.397317
10713.82031 0.397365
10714.34961 0.397414
10714.87012 0.397462
10715.40039 0.39751
10715.92969 0.397559
10716.45996 0.397607
10716.99023 0.397655
10717.51953 0.397704
10718.04980 0.397752
10718.58008 0.397801
10719.11035 0.397849
10719.63965 0.397897
10720.16992 0.397946
10720.70020 0.397994
10721.23047 0.398043
10721.75000 0.398091
10722.28027 0.398139
10722.80957 0.398188
10723.33984 0.398236
10723.87012 0.398285
10724.40039 0.398333
10724.92969 0.398381
10725.45996 0.39843
10725.99023 0.398478
10726.51953 0.398527
10727.04980 0.398575
10727.58008 0.398624
10728.11035 0.398672
10728.63965 0.39872
10729.16992 0.398769
10729.70020 0.398817
10730.23047 0.398866
10730.75977 0.398915
10731.29004 0.398963
10731.82031 0.399011
10732.34961 0.39906
10732.87988 0.399108
10733.41016 0.399157
10733.94043 0.399205
10734.46973 0.399254
10735.00000 0.399303
10735.53027 0.399351
10736.05957 0.3994
10736.58984 0.399448
10737.12012 0.399497
10737.65039 0.399545
10738.17969 0.399594
10738.70996 0.399642
10739.24023 0.399691
10739.76953 0.399739
10740.29980 0.399788
10740.83008 0.399837
10741.36035 0.399885
10741.88965 0.399934
10742.41992 0.399982
10742.95020 0.400031
10743.48047 0.40008
10744.00977 0.400128
10744.54004 0.400177
10745.07031 0.400226
10745.59961 0.400274
10746.12988 0.400323
10746.66016 0.400371
10747.19043 0.40042
10747.71973 0.400469
10748.25000 0.400517
10748.78027 0.400566
10749.30957 0.400614
10749.84961 0.400663
10750.37988 0.400712
10750.91016 0.400761
10751.44043 0.400809
10751.96973 0.400858
10752.50000 0.400907
10753.03027 0.400956
10753.55957 0.401004
10754.08984 0.401053
10754.62012 0.401102
10755.15039 0.401151
10755.67969 0.401199
10756.21973 0.401248
10756.75000 0.401297
10757.28027 0.401346
10757.80957 0.401394
10758.33984 0.401443
10758.87012 0.401492
10759.40039 0.401541
10759.92969 0.401589
10760.45996 0.401638
10761.00000 0.401687
10761.53027 0.401736
10762.05957 0.401785
10762.58984 0.401834
10763.12012 0.401882
10763.65039 0.401931
10764.17969 0.40198
10764.71973 0.402029
10765.25000 0.402078
10765.78027 0.402127
10766.30957 0.402176
10766.83984 0.402224
10767.37012 0.402273
10767.91016 0.402322
10768.44043 0.402371
10768.96973 0.40242
10769.50000 0.402469
10770.03027 0.402518
10770.55957 0.402567
10771.08984 0.402616
10771.62988 0.402665
10772.16016 0.402714
10772.69043 0.402763
10773.21973 0.402812
10773.75000 0.402861
10774.29004 0.402909
10774.82031 0.402958
10775.34961 0.403007
10775.87988 0.403056
10776.41016 0.403105
10776.95020 0.403154
10777.48047 0.403203
10778.00977 0.403252
10778.54004 0.403301
10779.07031 0.40335
10779.61035 0.403399
10780.13965 0.403448
10780.66992 0.403497
10781.20020 0.403546
10781.74023 0.403596
10782.26953 0.403645
10782.79980 0.403694
10783.33008 0.403743
10783.87012 0.403792
10784.40039 0.403841
10784.92969 0.40389
10785.45996 0.403939
10786.00000 0.403988
10786.53027 0.404038
10787.05957 0.404087
10787.58984 0.404136
10788.12012 0.404185
10788.66016 0.404234
10789.19043 0.404283
10789.71973 0.404332
10790.25977 0.404382
10790.79004 0.404431
10791.32031 0.40448
10791.84961 0.404529
10792.38965 0.404579
10792.91992 0.404628
10793.45020 0.404677
10793.99023 0.404726
10794.51953 0.404776
10795.04980 0.404825
10795.58008 0.404874
10796.12012 0.404923
10796.65039 0.404973
10797.17969 0.405022
10797.71973 0.405071
10798.25000 0.40512
10798.78027 0.40517
10799.32031 0.405219
10799.84961 0.405268
10800.37988 0.405318
10800.91992 0.405369
10801.45020 0.405419
10801.98047 0.405469
10802.50977 0.40552
10803.04980 0.40556
10803.58008 0.40555
10804.12012 0.405539
10804.65039 0.405529
10805.17969 0.405519
10805.70996 0.405509
10806.25000 0.405499
10806.78027 0.405488
10807.32031 0.405478
10807.84961 0.405468
10808.37988 0.405458
10808.91992 0.405448
10809.45020 0.405437
10809.98047 0.405427
10810.51953 0.405417
10811.04980 0.405407
10811.58008 0.405397
10812.12012 0.405386
10812.65039 0.405376
10813.19043 0.405366
10813.71973 0.405356
10814.25000 0.405346
10814.79004 0.405336
10815.32031 0.405326
10815.86035 0.405315
10816.38965 0.405305
10816.91992 0.405295
10817.45996 0.405285
10817.99023 0.405275
10818.53027 0.405265
10819.05957 0.405255
10819.58984 0.405245
10820.12988 0.405234
10820.66016 0.405224
10821.20020 0.405214
10821.73047 0.405204
10822.26953 0.405194
10822.79980 0.405184
10823.33008 0.405174
10823.87012 0.405164
10824.40039 0.405154
10824.94043 0.405144
10825.46973 0.405133
10826.00977 0.405123
10826.54004 0.405113
10827.08008 0.405103
10827.61035 0.405093
10828.13965 0.405083
10828.67969 0.405073
10829.20996 0.405063
10829.75000 0.405053
10830.28027 0.405043
10830.82031 0.405033
10831.34961 0.405023
10831.88965 0.405013
10832.41992 0.405003
10832.95996 0.404993
10833.49023 0.404983
10834.03027 0.404973
10834.55957 0.404963
10835.09961 0.404952
10835.62988 0.404942
10836.16992 0.404932
10836.70020 0.404922
10837.24023 0.404912
10837.76953 0.404902
10838.30957 0.404892
10838.83984 0.404882
10839.37988 0.404872
10839.91016 0.404862
10840.45020 0.404852
10840.98047 0.404842
10841.51953 0.404832
10842.04980 0.404822
10842.58984 0.404812
10843.12012 0.404803
10843.66016 0.404793
10844.19043 0.404783
10844.73047 0.404773
10845.25977 0.404763
10845.79980 0.404753
10846.33008 0.404743
10846.87012 0.404733
10847.41016 0.404723
10847.94043 0.404713
10848.48047 0.404703
10849.00977 0.404693
10849.54980 0.404683
10850.08008 0.404673
10850.62012 0.404664
10851.16016 0.404654
10851.69043 0.404644
10852.23047 0.404634
10852.75977 0.404624
10853.29980 0.404614
10853.83008 0.404604
10854.37012 0.404595
10854.91016 0.404585
10855.44043 0.404575
10855.98047 0.404565
10856.50977 0.404555
10857.04980 0.404545
10857.58984 0.404535
10858.12012 0.404525
10858.66016 0.404516
10859.19043 0.404506
10859.73047 0.404496
10860.26953 0.404495
10860.79980 0.404504
10861.33984 0.404513
10861.87988 0.404522
10862.41016 0.404531
10862.95020 0.40454
10863.48047 0.404549
10864.01953 0.404558
10864.55957 0.404566
10865.08984 0.404575
10865.62988 0.404584
10866.16992 0.404593
10866.70020 0.404602
10867.24023 0.404611
10867.78027 0.40462
10868.30957 0.404629
10868.84961 0.404637
10869.38965 0.404646
10869.91992 0.404655
10870.45996 0.404648
10871.00000 0.404639
10871.53027 0.404629
10872.07031 0.404619
10872.61035 0.40461
10873.13965 0.4046
10873.67969 0.40459
10874.21973 0.404581
10874.75000 0.404571
10875.29004 0.404561
10875.83008 0.404552
10876.36035 0.404542
10876.90039 0.404532
10877.44043 0.404523
10877.96973 0.404513
10878.50977 0.404503
10879.04980 0.404494
10879.58984 0.404484
10880.12012 0.404474
10880.66016 0.404465
10881.20020 0.404455
10881.73047 0.404445
10882.26953 0.404436
10882.80957 0.404426
10883.34961 0.404417
10883.87988 0.404407
10884.41992 0.404397
10884.95996 0.404388
10885.50000 0.404378
10886.03027 0.404369
10886.57031 0.404359
10887.11035 0.404349
10887.65039 0.40434
10888.17969 0.40433
10888.71973 0.40432
10889.25977 0.404311
10889.79980 0.404301
10890.33008 0.404292
10890.87012 0.404282
10891.41016 0.404273
10891.95020 0.404263
10892.48047 0.404254
10893.01953 0.404244
10893.55957 0.404235
10894.09961 0.404226
10894.63965 0.404216
10895.16992 0.404207
10895.70996 0.404197
10896.25000 0.404187
10896.79004 0.404178
10897.33008 0.404169
10897.86035 0.404159
10898.40039 0.40415
10898.94043 0.40414
10899.48047 0.404131
10900.01953 0.404121
10900.54980 0.404112
10901.08984 0.404102
10901.62988 0.404093
10902.16992 0.404084
10902.70996 0.404074
10903.25000 0.404024
10903.78027 0.40393
10904.32031 0.403835
10904.86035 0.403741
10905.40039 0.403647
10905.94043 0.403552
10906.46973 0.403458
10907.00977 0.403363
10907.54980 0.403269
10908.08984 0.403174
10908.62988 0.40308
10909.16992 0.402986
10909.70996 0.402891
10910.25000 0.402797
10910.78027 0.402703
10911.32031 0.402608
10911.86035 0.402514
10912.40039 0.40242
10912.94043 0.402325
10913.48047 0.402231
10914.01953 0.402136
10914.54980 0.402042
10915.08984 0.401948
10915.62988 0.401853
10916.16992 0.401759
10916.70996 0.401664
10917.25000 0.40157
10917.79004 0.401475
10918.33008 0.401381
10918.87012 0.401286
10919.41016 0.401192
10919.94043 0.401098
10920.48047 0.401003
10921.01953 0.400909
10921.55957 0.400815
10922.09961 0.40072
10922.63965 0.400626
10923.17969 0.400532
10923.71973 0.400437
10924.25977 0.400343
10924.79980 0.400248
10925.33984 0.400154
10925.87988 0.40006
10926.41992 0.399965
10926.95996 0.399871
10927.49023 0.399776
10928.03027 0.399682
10928.57031 0.399588
10929.11035 0.399493
10929.65039 0.399398
10930.19043 0.399304
10930.73047 0.39921
10931.26953 0.399116
10931.80957 0.399021
10932.34961 0.398927
10932.88965 0.398832
10933.42969 0.398738
10933.96973 0.398643
10934.50977 0.398549
10935.04980 0.398455
10935.58984 0.39836
10936.12988 0.398266
10936.66992 0.398172
10937.20996 0.398077
10937.75000 0.397983
10938.29004 0.397888
10938.83008 0.397794
10939.37012 0.397699
10939.91016 0.397605
10940.45020 0.39751
10940.99023 0.397416
10941.53027 0.397322
10942.07031 0.397227
10942.61035 0.397133
10943.15039 0.397039
10943.69043 0.396944
10944.23047 0.39685
10944.76953 0.396755
10945.30957 0.396661
10945.84961 0.396566
10946.38965 0.396472
10946.92969 0.396377
10947.46973 0.396283
10948.00977 0.396188
10948.54980 0.396094
10949.09961 0.396
10949.63965 0.395905
10950.17969 0.395811
10950.71973 0.395716
10951.25977 0.395622
10951.79980 0.395527
10952.33984 0.395433
10952.87988 0.395339
10953.41992 0.395244
10953.95996 0.39515
10954.50000 0.395055
10955.04004 0.394961
10955.58008 0.394866
10956.12988 0.394772
10956.66992 0.394677
10957.20996 0.394583
10957.75000 0.394488
10958.29004 0.394394
10958.83008 0.394299
10959.37012 0.394205
10959.91016 0.39411
10960.45020 0.394016
10960.99023 0.393921
10961.54004 0.393827
10962.08008 0.393733
10962.62012 0.393638
10963.16016 0.393544
10963.70020 0.393449
10964.24023 0.393355
10964.78027 0.393261
10965.32031 0.393166
10965.87012 0.393072
10966.41016 0.392977
10966.95020 0.392883
10967.49023 0.392788
10968.03027 0.392693
10968.57031 0.392599
10969.11035 0.392504
10969.66016 0.39241
10970.20020 0.392322
10970.74023 0.392246
10971.28027 0.39217
10971.82031 0.392094
10972.36035 0.392018
10972.91016 0.391941
10973.45020 0.391865
10973.99023 0.391789
10974.53027 0.391713
10975.07031 0.391637
10975.61035 0.39156
10976.16016 0.391484
10976.70020 0.391408
10977.24023 0.391331
10977.78027 0.391255
10978.32031 0.391178
10978.87012 0.391102
10979.41016 0.391026
10979.95020 0.390949
10980.49023 0.390857
10981.03027 0.390762
10981.58008 0.390668
10982.12012 0.390573
10982.66016 0.390479
10983.20020 0.390384
10983.75000 0.39029
10984.29004 0.390195
10984.83008 0.390101
10985.37012 0.390006
10985.91016 0.389912
10986.45996 0.389817
10987.00000 0.389723
10987.54004 0.389628
10988.08008 0.389533
10988.62988 0.389439
10989.16992 0.389344
10989.70996 0.38925
10990.25000 0.389153
10990.79980 0.389054
10991.33984 0.388956
10991.87988 0.388857
10992.41992 0.388758
10992.96973 0.388659
10993.50977 0.38856
10994.04980 0.388462
10994.59961 0.388363
10995.13965 0.388264
10995.67969 0.388165
10996.21973 0.388066
10996.76953 0.387967
10997.30957 0.387869
10997.84961 0.38777
10998.40039 0.387671
10998.94043 0.387572
10999.48047 0.387473
11000.03027 0.387374
11000.57031 0.387278
11001.11035 0.387182
11001.65039 0.387085
11002.20020 0.386989
11002.74023 0.386892
11003.28027 0.386898
11003.83008 0.387004
11004.37012 0.387111
11004.91016 0.387218
11005.45996 0.387325
11006.00000 0.387432
11006.54004 0.387539
11007.08984 0.387645
11007.62988 0.387752
11008.16992 0.387859
11008.71973 0.387966
11009.25977 0.388073
11009.79980 0.38818
11010.34961 0.388287
11010.88965 0.388394
11011.44043 0.388501
11011.98047 0.388608
11012.51953 0.388715
11013.07031 0.388822
11013.61035 0.388929
11014.15039 0.389036
11014.70020 0.389143
11015.24023 0.38925
11015.79004 0.389357
11016.33008 0.389464
11016.87012 0.389571
11017.41992 0.389678
11017.95996 0.389785
11018.50000 0.389892
11019.04980 0.389999
11019.58984 0.390106
11020.13965 0.390213
11020.67969 0.39032
11021.21973 0.390427
11021.76953 0.390535
11022.30957 0.390642
11022.86035 0.390749
11023.40039 0.390856
11023.95020 0.390963
11024.49023 0.39107
11025.03027 0.391177
11025.58008 0.391285
11026.12012 0.391392
11026.66992 0.391499
11027.20996 0.391606
11027.75977 0.391713
11028.29980 0.391821
11028.84961 0.391928
11029.38965 0.392035
11029.92969 0.392142
11030.48047 0.39225
11031.01953 0.392357
11031.57031 0.392464
11032.11035 0.392571
11032.66016 0.392679
11033.20020 0.392786
11033.75000 0.392894
11034.29004 0.393001
11034.83984 0.393108
11035.37988 0.393215
11035.92969 0.393323
11036.46973 0.39343
11037.01953 0.393537
11037.55957 0.393645
11038.11035 0.393752
11038.65039 0.39386
11039.20020 0.393967
11039.74023 0.394074
11040.29004 0.394182
11040.83008 0.394289
11041.37988 0.394397
11041.91992 0.394504
11042.46973 0.394612
11043.00977 0.394719
11043.55957 0.394827
11044.09961 0.394934
11044.65039 0.395041
11045.19043 0.395149
11045.74023 0.395257
11046.28027 0.395364
11046.83008 0.395471
11047.37012 0.395579
11047.91992 0.395687
11048.45996 0.395794
11049.00977 0.395902
11049.55957 0.396009
11050.09961 0.396117
11050.65039 0.396224
11051.19043 0.396332
11051.74023 0.39644
11052.28027 0.396547
11052.83008 0.396655
11053.37012 0.396763
11053.91992 0.39687
11054.46973 0.396978
11055.00977 0.397085
11055.55957 0.397193
11056.09961 0.397301
11056.65039 0.397409
11057.20020 0.397516
11057.74023 0.397624
11058.29004 0.397732
11058.83008 0.397839
11059.37988 0.397947
11059.91992 0.398055
11060.46973 0.398179
11061.01953 0.398305
11061.55957 0.398431
11062.11035 0.398558
11062.66016 0.398685
11063.20020 0.398811
11063.75000 0.398938
11064.29004 0.399064
11064.83984 0.399191
11065.38965 0.399317
11065.92969 0.399444
11066.48047 0.399571
11067.03027 0.399697
11067.57031 0.399824
11068.12012 0.399951
11068.66992 0.400077
11069.20996 0.400204
11069.75977 0.400331
11070.29980 0.400447
11070.84961 0.400555
11071.40039 0.400663
11071.94043 0.400771
11072.49023 0.400879
11073.04004 0.400987
11073.58008 0.401095
11074.12988 0.401204
11074.67969 0.401312
11075.21973 0.40142
11075.76953 0.401528
11076.32031 0.401636
11076.86035 0.401744
11077.41016 0.401852
11077.95996 0.40196
11078.50000 0.402068
11079.04980 0.402176
11079.59961 0.402285
11080.15039 0.402393
11080.69043 0.402501
11081.24023 0.402609
11081.79004 0.402717
11082.33008 0.402826
11082.87988 0.402934
11083.42969 0.403042
11083.98047 0.40315
11084.51953 0.403259
11085.07031 0.403367
11085.62012 0.403475
11086.16992 0.403583
11086.70996 0.403692
11087.25977 0.4038
11087.80957 0.403908
11088.34961 0.404017
11088.90039 0.404125
11089.45020 0.404233
11090.00000 0.404342
11090.54004 0.40445
11091.08984 0.404558
11091.63965 0.404667
11092.19043 0.404775
11092.73047 0.404883
11093.28027 0.404992
11093.83008 0.4051
11094.37988 0.405209
11094.92969 0.405317
11095.46973 0.405425
11096.01953 0.405534
11096.57031 0.405642
11097.12012 0.405751
11097.66992 0.405859
11098.20996 0.405968
11098.75977 0.406076
11099.30957 0.406185
11099.86035 0.406293
11100.40039 0.406402
11100.95020 0.40651
11101.50000 0.406618
11102.04980 0.406727
11102.59961 0.406836
11103.13965 0.406909
11103.69043 0.406834
11104.24023 0.406758
11104.79004 0.406683
11105.33984 0.406607
11105.88965 0.406532
11106.42969 0.406456
11106.98047 0.406381
11107.53027 0.406305
11108.08008 0.40623
11108.62988 0.406154
11109.17969 0.406079
11109.71973 0.406003
11110.26953 0.405928
11110.82031 0.405853
11111.37012 0.405777
11111.91992 0.405701
11112.46973 0.405626
11113.01953 0.40555
11113.55957 0.405475
11114.11035 0.405399
11114.66016 0.405324
11115.20996 0.405248
11115.75977 0.405172
11116.30957 0.405097
11116.86035 0.405021
11117.41016 0.404946
11117.95996 0.40487
11118.50000 0.404794
11119.04980 0.404719
11119.59961 0.404643
11120.15039 0.404568
11120.70020 0.404492
11121.25000 0.404416
11121.79980 0.404341
11122.34961 0.404265
11122.90039 0.404189
11123.45020 0.404114
11123.99023 0.404038
11124.54004 0.403962
11125.08984 0.403886
11125.63965 0.403811
11126.19043 0.403735
11126.74023 0.403659
11127.29004 0.403584
11127.83984 0.403508
11128.38965 0.403432
11128.94043 0.403357
11129.49023 0.403281
11130.04004 0.403205
11130.58984 0.403129
11131.13965 0.403053
11131.69043 0.402978
11132.24023 0.402902
11132.79004 0.402826
11133.33008 0.40275
11133.87988 0.402675
11134.42969 0.402599
11134.98047 0.402523
11135.53027 0.402447
11136.08008 0.402371
11136.62988 0.402295
11137.17969 0.40222
11137.73047 0.402144
11138.28027 0.402068
11138.83008 0.401992
11139.37988 0.401916
11139.92969 0.40184
11140.48047 0.401781
11141.03027 0.401724
11141.58008 0.401667
11142.12988 0.40161
11142.67969 0.401553
11143.23047 0.401496
11143.78027 0.401439
11144.33008 0.401382
11144.87988 0.401325
11145.42969 0.401268
11145.98047 0.401211
11146.53027 0.401154
11147.08008 0.401097
11147.62988 0.40104
11148.17969 0.400983
11148.74023 0.400925
11149.29004 0.400868
11149.83984 0.400811
11150.38965 0.400741
11150.94043 0.400665
11151.49023 0.400589
11152.04004 0.400513
11152.58984 0.400436
11153.13965 0.40036
11153.69043 0.400284
11154.24023 0.400208
11154.79004 0.400132
11155.33984 0.400056
11155.88965 0.39998
11156.44043 0.399904
11156.99023 0.399828
11157.54004 0.399751
11158.09961 0.399675
11158.65039 0.399599
11159.20020 0.399523
11159.75000 0.399447
11160.29980 0.399371
11160.84961 0.399294
11161.40039 0.399218
11161.95020 0.399142
11162.50000 0.399066
11163.04980 0.398989
11163.61035 0.398913
11164.16016 0.398837
11164.70996 0.398761
11165.25977 0.398685
11165.80957 0.398608
11166.36035 0.398532
11166.91016 0.398456
11167.45996 0.398379
11168.01953 0.398303
11168.57031 0.398227
11169.12012 0.398151
11169.66992 0.398074
11170.21973 0.397998
11170.76953 0.397922
11171.32031 0.397845
11171.87988 0.397769
11172.42969 0.397693
11172.98047 0.397616
11173.53027 0.39754
11174.08008 0.397464
11174.62988 0.397387
11175.19043 0.397311
11175.74023 0.397235
11176.29004 0.397158
11176.83984 0.397082
11177.38965 0.397006
11177.95020 0.396929
11178.50000 0.396853
11179.04980 0.396776
11179.59961 0.3967
11180.15039 0.396623
11180.70020 0.396547
11181.25977 0.396471
11181.80957 0.396394
11182.36035 0.396318
11182.91016 0.396241
11183.45996 0.396165
11184.01953 0.396088
11184.57031 0.396012
11185.12012 0.395935
11185.66992 0.395859
11186.23047 0.395782
11186.78027 0.395706
11187.33008 0.395629
11187.87988 0.395553
11188.42969 0.395476
11188.99023 0.3954
11189.54004 0.395323
11190.08984 0.395247
11190.63965 0.39517
11191.20020 0.395093
11191.75000 0.395017
11192.29980 0.39494
11192.84961 0.394864
11193.41016 0.394787
11193.95996 0.394711
11194.50977 0.394634
11195.07031 0.394557
11195.62012 0.394481
11196.16992 0.394404
11196.71973 0.394328
11197.28027 0.394251
11197.83008 0.394174
11198.37988 0.394098
11198.92969 0.394021
11199.49023 0.393944
11200.04004 0.393869
11200.58984 0.393812
11201.15039 0.393755
11201.70020 0.393699
11202.25000 0.393641
11202.80957 0.393585
11203.36035 0.393562
11203.91016 0.393569
11204.45996 0.393576
11205.01953 0.393584
11205.57031 0.393591
11206.12988 0.393599
11206.67969 0.393606
11207.23047 0.393613
11207.78027 0.393621
11208.33984 0.393628
11208.88965 0.393636
11209.44043 0.393643
11210.00000 0.39365
11210.54980 0.393639
11211.09961 0.393628
11211.66016 0.393617
11212.20996 0.393605
11212.76953 0.393594
11213.32031 0.393583
11213.87012 0.393572
11214.42969 0.39356
11214.98047 0.393549
11215.53027 0.393538
11216.08984 0.393526
11216.63965 0.393515
11217.20020 0.393504
11217.75000 0.393493
11218.29980 0.393481
11218.86035 0.39347
11219.41016 0.393459
11219.95996 0.393448
11220.51953 0.393436
11221.07031 0.393425
11221.62988 0.393414
11222.17969 0.393402
11222.73047 0.393391
11223.29004 0.39338
11223.83984 0.393369
11224.40039 0.393357
11224.95020 0.393346
11225.50000 0.393335
11226.05957 0.393323
11226.61035 0.393312
11227.16992 0.393301
11227.71973 0.39329
11228.28027 0.393278
11228.83008 0.393267
11229.37988 0.393256
11229.94043 0.393244
11230.49023 0.393233
11231.04980 0.393222
11231.59961 0.39321
11232.16016 0.393199
11232.70996 0.393188
11233.26953 0.393176
11233.82031 0.393165
11234.37988 0.393154
11234.92969 0.393142
11235.48047 0.393131
11236.04004 0.39312
11236.58984 0.393109
11237.15039 0.393097
11237.70020 0.393086
11238.25977 0.393074
11238.80957 0.393063
11239.37012 0.393052
11239.91992 0.393041
11240.48047 0.393029
11241.03027 0.393018
11241.58984 0.393006
11242.13965 0.392995
11242.70020 0.392984
11243.25000 0.392973
11243.80957 0.392961
11244.36035 0.39295
11244.91992 0.392939
11245.46973 0.392927
11246.03027 0.392916
11246.58008 0.392904
11247.13965 0.392893
11247.69043 0.392882
11248.25000 0.39287
11248.80957 0.392859
11249.36035 0.392848
11249.91992 0.392836
11250.46973 0.392825
11251.03027 0.392814
11251.58008 0.392802
11252.13965 0.392791
11252.69043 0.39278
11253.25000 0.392768
11253.79980 0.392757
11254.36035 0.392746
11254.91992 0.392734
11255.46973 0.392723
11256.03027 0.392711
11256.58008 0.3927
11257.13965 0.392689
11257.69043 0.392677
11258.25000 0.392666
11258.80957 0.392655
11259.36035 0.392643
11259.91992 0.392632
11260.46973 0.392621
11261.03027 0.392609
11261.58984 0.392598
11262.13965 0.392586
11262.70020 0.392575
11263.25000 0.392564
11263.80957 0.392552
11264.37012 0.392541
11264.91992 0.392529
11265.48047 0.392518
11266.03027 0.392507
11266.58984 0.392495
11267.15039 0.392484
11267.70020 0.392473
11268.25977 0.392461
11268.82031 0.39245
11269.37012 0.392438
11269.92969 0.392427
11270.48047 0.392432
11271.04004 0.392439
11271.59961 0.392446
11272.15039 0.392454
11272.70996 0.392461
11273.26953 0.392468
11273.82031 0.392476
11274.37988 0.392483
11274.94043 0.39249
11275.49023 0.392497
11276.04980 0.392505
11276.61035 0.392512
11277.16016 0.392519
11277.71973 0.392527
11278.28027 0.392534
11278.83008 0.392541
11279.38965 0.392548
11279.95020 0.392556
11280.50000 0.392546
11281.05957 0.392535
11281.62012 0.392523
11282.17969 0.392512
11282.73047 0.3925
11283.29004 0.392489
11283.84961 0.392477
11284.40039 0.392466
11284.95996 0.392455
11285.51953 0.392443
11286.08008 0.392432
11286.62988 0.39242
11287.19043 0.392409
11287.75000 0.392397
11288.29980 0.392386
11288.86035 0.392374
11289.41992 0.392363
11289.98047 0.392352
11290.53027 0.39234
11291.08984 0.392329
11291.65039 0.392317
11292.20996 0.392306
11292.75977 0.392294
11293.32031 0.392283
11293.87988 0.392271
11294.44043 0.39226
11294.99023 0.392248
11295.54980 0.392237
11296.11035 0.392226
11296.66992 0.392214
11297.21973 0.392203
11297.78027 0.392191
11298.33984 0.39218
11298.90039 0.392168
11299.45996 0.392157
11300.00977 0.392145
11300.57031 0.392134
11301.12988 0.392122
11301.69043 0.392111
11302.25000 0.392099
11302.79980 0.392088
11303.36035 0.391969
11303.91992 0.391733
11304.48047 0.391497
11305.04004 0.391261
11305.58984 0.391026
11306.15039 0.39079
11306.70996 0.390554
11307.26953 0.390318
11307.83008 0.390082
11308.37988 0.389846
11308.94043 0.38961
11309.50000 0.389374
11310.05957 0.389138
11310.62012 0.388902
11311.17969 0.388666
11311.74023 0.38843
11312.29004 0.388194
11312.84961 0.387958
11313.41016 0.387722
11313.96973 0.387486
11314.53027 0.38725
11315.08984 0.387013
11315.63965 0.386777
11316.20020 0.386541
11316.75977 0.386305
11317.32031 0.386068
11317.87988 0.385832
11318.44043 0.385595
11319.00000 0.385359
11319.55957 0.385123
11320.12012 0.384886
11320.66992 0.38465
11321.23047 0.384414
11321.79004 0.384177
11322.34961 0.383941
11322.91016 0.383704
11323.46973 0.383467
11324.03027 0.383231
11324.58984 0.382994
11325.15039 0.382758
11325.70996 0.382521
11326.25977 0.382285
11326.82031 0.382048
11327.37988 0.381811
11327.94043 0.381575
11328.50000 0.381338
11329.05957 0.381101
11329.62012 0.380864
11330.17969 0.380633
11330.74023 0.380415
11331.29980 0.380196
11331.86035 0.379977
11332.41992 0.379758
11332.98047 0.37954
11333.54004 0.379321
11334.08984 0.379102
11334.65039 0.378883
11335.20996 0.378664
11335.76953 0.378445
11336.33008 0.378226
11336.88965 0.378007
11337.45020 0.377788
11338.00977 0.377569
11338.57031 0.37735
11339.12988 0.37713
11339.69043 0.376911
11340.25000 0.376683
11340.80957 0.376446
11341.37012 0.376208
11341.92969 0.375971
11342.49023 0.375734
11343.04980 0.375496
11343.61035 0.375259
11344.16992 0.375021
11344.73047 0.374783
11345.29004 0.374546
11345.84961 0.374308
11346.41016 0.374071
11346.96973 0.373833
11347.53027 0.373595
11348.08984 0.373358
11348.65039 0.37312
11349.20996 0.372882
11349.76953 0.372644
11350.33008 0.372406
11350.88965 0.372169
11351.45996 0.371931
11352.01953 0.371693
11352.58008 0.371455
11353.13965 0.371217
11353.70020 0.37098
11354.25977 0.370742
11354.82031 0.370503
11355.37988 0.370266
11355.94043 0.370028
11356.50000 0.369789
11357.05957 0.369551
11357.62012 0.369313
11358.17969 0.369075
11358.74023 0.368837
11359.29980 0.368599
11359.86035 0.368361
11360.41992 0.368123
11360.99023 0.367885
11361.54980 0.367646
11362.11035 0.367408
11362.66992 0.367169
11363.23047 0.366931
11363.79004 0.366693
11364.34961 0.366455
11364.91016 0.366216
11365.46973 0.365978
11366.04004 0.365739
11366.59961 0.365501
11367.16016 0.365263
11367.71973 0.365024
11368.28027 0.364786
11368.83984 0.364547
11369.40039 0.364308
11369.95996 0.36407
11370.51953 0.363832
11371.08984 0.363593
11371.65039 0.363354
11372.20996 0.363115
11372.76953 0.362877
11373.33008 0.362638
11373.88965 0.362399
11374.45996 0.362161
11375.01953 0.361922
11375.58008 0.361683
11376.13965 0.361444
11376.70020 0.361206
11377.25977 0.360967
11377.83008 0.360728
11378.38965 0.360489
11378.95020 0.36025
11379.50977 0.360011
11380.07031 0.359774
11380.62988 0.359553
11381.20020 0.359331
11381.75977 0.359109
11382.32031 0.358887
11382.87988 0.358665
11383.44043 0.358443
11384.00977 0.358221
11384.57031 0.357999
11385.12988 0.357777
11385.69043 0.357555
11386.25000 0.357333
11386.82031 0.357111
11387.37988 0.356888
11387.94043 0.356666
11388.50000 0.356444
11389.05957 0.356222
11389.62988 0.355999
11390.19043 0.355771
11390.75000 0.355531
11391.30957 0.355291
11391.87988 0.355052
11392.44043 0.354812
11393.00000 0.354573
11393.55957 0.354333
11394.12988 0.354093
11394.69043 0.353854
11395.25000 0.353614
11395.80957 0.353374
11396.37988 0.353134
11396.94043 0.352894
11397.50000 0.352654
11398.05957 0.352415
11398.62988 0.352175
11399.19043 0.351935
11399.75000 0.351695
11400.32031 0.351456
11400.87988 0.351217
11401.44043 0.350979
11402.00000 0.35074
11402.57031 0.350501
11403.12988 0.350249
11403.69043 0.34916
11404.25977 0.348072
11404.82031 0.346982
11405.37988 0.345894
11405.95020 0.344805
11406.50977 0.343715
11407.07031 0.342627
11407.62988 0.341537
11408.20020 0.340446
11408.75977 0.339356
11409.32031 0.338268
11409.88965 0.337178
11410.45020 0.336088
11411.00977 0.334997
11411.58008 0.333907
11412.13965 0.332816
11412.70996 0.331726
11413.26953 0.330635
11413.83008 0.329545
11414.40039 0.328454
11414.95996 0.327363
11415.51953 0.326272
11416.08984 0.325182
11416.65039 0.324091
11417.20996 0.323
11417.78027 0.321909
11418.33984 0.320816
11418.90039 0.319725
11419.46973 0.318633
11420.03027 0.317542
11420.59961 0.316449
11421.16016 0.315358
11421.71973 0.314264
11422.29004 0.313173
11422.84961 0.312081
11423.41992 0.310988
11423.98047 0.309896
11424.54004 0.308803
11425.11035 0.307709
11425.66992 0.306617
11426.24023 0.305524
11426.79980 0.304432
11427.36035 0.303338
11427.92969 0.302244
11428.49023 0.30115
11429.05957 0.300058
11429.62012 0.298964
11430.17969 0.297869
11430.75000 0.296775
11431.30957 0.295681
11431.87988 0.294587
11432.44043 0.293492
11433.00977 0.292398
11433.57031 0.291303
11434.13965 0.290209
11434.70020 0.289114
11435.25977 0.28802
11435.83008 0.286925
11436.38965 0.28583
11436.95996 0.284735
11437.51953 0.283641
11438.08984 0.282544
11438.65039 0.281449
11439.21973 0.280354
11439.78027 0.279257
11440.34961 0.27817
11440.91016 0.277088
11441.48047 0.276004
11442.04004 0.274922
11442.61035 0.273838
11443.16992 0.272755
11443.74023 0.27167
11444.29980 0.270588
11444.87012 0.269503
11445.42969 0.26842
11446.00000 0.267334
11446.55957 0.266249
11447.12988 0.265165
11447.69043 0.26408
11448.25977 0.262994
11448.82031 0.26191
11449.38965 0.260823
11449.95020 0.259737
11450.51953 0.258639
11451.08008 0.25754
11451.65039 0.256441
11452.20996 0.255342
11452.78027 0.254243
11453.33984 0.253143
11453.91016 0.252044
11454.48047 0.250945
11455.04004 0.249845
11455.61035 0.248746
11456.16992 0.247646
11456.74023 0.246547
11457.29980 0.245445
11457.87012 0.244345
11458.42969 0.243246
11459.00000 0.242146
11459.57031 0.241044
11460.12988 0.239944
11460.70020 0.238844
11461.25977 0.237742
11461.83008 0.236642
11462.40039 0.23554
11462.95996 0.23444
11463.53027 0.233338
11464.08984 0.232237
11464.66016 0.231135
11465.21973 0.230034
11465.79004 0.228932
11466.36035 0.227829
11466.91992 0.226729
11467.49023 0.225626
11468.05957 0.224524
11468.62012 0.223421
11469.19043 0.22232
11469.75000 0.221217
11470.32031 0.220114
11470.88965 0.219011
11471.45020 0.217909
11472.01953 0.216805
11472.58984 0.215702
11473.15039 0.214599
11473.71973 0.213496
11474.29004 0.212393
11474.84961 0.211289
11475.41992 0.210186
11475.98047 0.209083
11476.54980 0.207979
11477.12012 0.206874
11477.67969 0.20577
11478.25000 0.204667
11478.82031 0.203563
11479.37988 0.202457
11479.95020 0.201353
11480.51953 0.200249
11481.08008 0.199144
11481.65039 0.19804
11482.21973 0.196934
11482.79004 0.19583
11483.34961 0.194723
11483.91992 0.193619
11484.49023 0.192513
11485.04980 0.191409
11485.62012 0.190302
11486.19043 0.189196
11486.75000 0.188092
11487.32031 0.186985
11487.88965 0.185879
11488.45996 0.184772
11489.01953 0.183665
11489.58984 0.182561
11490.16016 0.181456
11490.71973 0.180358
11491.29004 0.17926
11491.86035 0.178162
11492.42969 0.177063
11492.99023 0.175964
11493.55957 0.174865
11494.12988 0.173766
11494.70020 0.172667
11495.25977 0.171568
11495.83008 0.170468
11496.40039 0.169366
11496.96973 0.168267
11497.53027 0.167166
11498.09961 0.166066
11498.66992 0.164964
11499.24023 0.163863
11499.79980 0.162763
11500.37012 0.161655
11500.94043 0.160545
11501.50977 0.159436
11502.08008 0.158325
11502.63965 0.157215
11503.20996 0.15616
11503.78027 0.155552
11504.34961 0.154944
11504.91992 0.154336
11505.48047 0.153729
11506.04980 0.15312
11506.62012 0.152512
11507.19043 0.151904
11507.75977 0.151296
11508.32031 0.150687
11508.88965 0.150078
11509.45996 0.14947
11510.03027 0.148862
11510.59961 0.148254
11511.16992 0.147645
11511.73047 0.147036
11512.29980 0.146427
11512.87012 0.145818
11513.44043 0.14521
11514.00977 0.144601
11514.58008 0.143992
11515.13965 0.143382
11515.70996 0.142773
11516.28027 0.142164
11516.84961 0.141555
11517.41992 0.140946
11517.99023 0.140336
11518.55957 0.139727
11519.12012 0.139118
11519.69043 0.138508
11520.25977 0.137898
11520.83008 0.137289
11521.40039 0.136679
11521.96973 0.13607
11522.54004 0.135459
11523.11035 0.13485
11523.66992 0.13424
11524.24023 0.133629
11524.80957 0.13302
11525.37988 0.13241
11525.95020 0.1318
11526.51953 0.131189
11527.08984 0.130579
11527.66016 0.129968
11528.23047 0.129359
11528.79980 0.128748
11529.37012 0.128138
11529.92969 0.127527
11530.50000 0.126916
11531.07031 0.126305
11531.63965 0.125695
11532.20996 0.125084
11532.78027 0.124473
11533.34961 0.123862
11533.91992 0.123251
11534.49023 0.122641
11535.05957 0.12203
11535.62988 0.121419
11536.20020 0.120808
11536.76953 0.120196
11537.33984 0.119585
11537.91016 0.118973
11538.48047 0.118361
11539.04980 0.11775
11539.62012 0.117139
11540.19043 0.116529
11540.75000 0.115923
11541.32031 0.115318
11541.88965 0.114711
11542.45996 0.114105
11543.03027 0.113498
11543.59961 0.112891
11544.16992 0.112285
11544.74023 0.111677
11545.30957 0.111071
11545.87988 0.110464
11546.45020 0.109856
11547.01953 0.109249
11547.58984 0.108642
11548.16016 0.108034
11548.73047 0.107426
11549.29980 0.106818
11549.87988 0.10621
11550.45020 0.105598
11551.01953 0.104985
11551.58008 0.104373
11552.16016 0.10376
11552.73047 0.103145
11553.29980 0.102532
11553.87012 0.101918
11554.44043 0.101305
11555.00977 0.100691
11555.58008 0.100078
11556.15039 0.099464
11556.71973 0.098851
11557.29004 0.098236
11557.86035 0.097623
11558.42969 0.097009
11559.00000 0.096394
11559.57031 0.095781
11560.13965 0.095167
11560.70996 0.094552
11561.28027 0.093938
11561.86035 0.093323
11562.42969 0.09271
11563.00000 0.092095
11563.57031 0.091481
11564.13965 0.090866
11564.70996 0.090251
11565.28027 0.089637
11565.84961 0.089022
11566.41992 0.088407
11566.99023 0.087792
11567.55957 0.087178
11568.13965 0.086562
11568.70996 0.085947
11569.28027 0.085332
11569.84961 0.084717
11570.41992 0.084101
11570.99023 0.083486
11571.55957 0.082871
11572.12988 0.082255
11572.70996 0.08164
11573.28027 0.081025
11573.84961 0.080409
11574.41992 0.079794
11574.99023 0.079178
11575.55957 0.078563
11576.12988 0.077947
11576.70996 0.077331
11577.28027 0.076715
11577.84961 0.076099
11578.41992 0.075483
11578.99023 0.074867
11579.55957 0.074251
11580.13965 0.073634
11580.70996 0.073019
11581.28027 0.072402
11581.84961 0.071786
11582.41992 0.071169
11582.99023 0.070553
11583.57031 0.069936
11584.13965 0.06932
11584.70996 0.068703
11585.28027 0.068086
11585.84961 0.06747
11586.42969 0.066853
11587.00000 0.066236
11587.57031 0.065619
11588.13965 0.065003
11588.70996 0.064385
11589.29004 0.063768
11589.86035 0.063151
11590.42969 0.062536
11591.00000 0.061921
11591.58008 0.061307
11592.15039 0.060692
11592.71973 0.060078
11593.29004 0.059463
11593.86035 0.058848
11594.44043 0.058234
11595.00977 0.057618
11595.58008 0.057002
11596.15039 0.056387
11596.73047 0.055772
11597.29980 0.055157
11597.87012 0.05454
11598.44043 0.053925
11599.01953 0.053309
11599.58984 0.052693
11600.16016 0.052076
11600.74023 0.051457
11601.30957 0.050838
11601.87988 0.050219
11602.45020 0.049601
11603.03027 0.048981
11603.59961 0.048634
11604.16992 0.048382
11604.75000 0.04813
11605.32031 0.047878
11605.88965 0.047626
11606.45996 0.047374
11607.04004 0.047122
11607.61035 0.04687
11608.17969 0.046618
11608.75977 0.046366
11609.33008 0.046113
11609.90039 0.045861
11610.48047 0.045609
11611.04980 0.045357
11611.62012 0.045104
11612.20020 0.044852
11612.76953 0.0446
11613.33984 0.044347
11613.91992 0.044095
11614.49023 0.043843
11615.05957 0.04359
11615.63965 0.043338
11616.20996 0.043085
11616.78027 0.042833
11617.36035 0.04258
11617.92969 0.042328
11618.50000 0.042075
11619.08008 0.041822
11619.65039 0.04157
11620.21973 0.041317
11620.79980 0.041064
11621.37012 0.040812
11621.95020 0.040559
11622.51953 0.040307
11623.08984 0.040054
11623.66992 0.039801
11624.24023 0.039548
11624.80957 0.039295
11625.38965 0.039042
11625.95996 0.03879
11626.54004 0.038537
11627.11035 0.038284
11627.67969 0.038031
11628.25977 0.037777
11628.83008 0.037525
11629.41016 0.037272
11629.98047 0.037019
11630.54980 0.036767
11631.12988 0.036516
11631.70020 0.036265
11632.28027 0.036013
11632.84961 0.035762
11633.42969 0.03551
11634.00000 0.035258
11634.58008 0.035007
11635.15039 0.034755
11635.71973 0.034504
11636.29980 0.034252
11636.87012 0.034
11637.45020 0.033748
11638.01953 0.033496
11638.59961 0.033244
11639.16992 0.032992
11639.75000 0.03274
11640.32031 0.032487
11640.88965 0.032234
11641.46973 0.03198
11642.04004 0.031726
11642.62012 0.031472
11643.19043 0.031218
11643.76953 0.030964
11644.33984 0.03071
11644.91992 0.030456
11645.49023 0.030203
11646.07031 0.029949
11646.63965 0.029695
11647.21973 0.029441
11647.79004 0.029187
11648.37012 0.028933
11648.94043 0.028679
11649.51953 0.028425
11650.08984 0.02817
11650.66992 0.027916
11651.24023 0.027662
11651.82031 0.027408
11652.38965 0.027154
11652.96973 0.0269
11653.54004 0.026645
11654.12012 0.026391
11654.70020 0.026136
11655.26953 0.025882
11655.84961 0.025628
11656.41992 0.025373
11657.00000 0.025119
11657.57031 0.024865
11658.15039 0.02461
11658.71973 0.024356
11659.29980 0.024101
11659.87988 0.023847
11660.45020 0.023592
11661.03027 0.023337
11661.59961 0.023083
11662.17969 0.022828
11662.75000 0.022574
11663.33008 0.022319
11663.91016 0.022064
11664.48047 0.02181
11665.05957 0.021555
11665.62988 0.0213
11666.20996 0.021045
11666.79004 0.02079
11667.36035 0.020536
11667.94043 0.020281
11668.50977 0.020026
11669.08984 0.019771
11669.66992 0.019516
11670.24023 0.019261
11670.82031 0.019006
11671.38965 0.018751
11671.96973 0.018496
11672.54980 0.018241
11673.12012 0.017986
11673.70020 0.017731
11674.28027 0.017475
11674.84961 0.01722
11675.42969 0.016965
11676.00000 0.01671
11676.58008 0.016455
11677.16016 0.016199
11677.73047 0.015944
11678.30957 0.015689
11678.88965 0.015433
11679.45996 0.015178
11680.04004 0.014922
11680.62012 0.014668
11681.19043 0.014413
11681.76953 0.014158
11682.34961 0.013903
11682.91992 0.013649
11683.50000 0.013394
11684.08008 0.013139
11684.65039 0.012884
11685.23047 0.012629
11685.80957 0.012373
11686.38965 0.012118
11686.95996 0.011863
11687.54004 0.011608
11688.12012 0.011352
11688.69043 0.011097
11689.26953 0.010842
11689.84961 0.010586
11690.41992 0.01033
11691.00000 0.010074
11691.58008 0.009818
11692.16016 0.009562
11692.73047 0.009306
11693.30957 0.00905
11693.88965 0.008794
11694.46973 0.008537
11695.04004 0.008281
11695.62012 0.008025
11696.20020 0.007769
11696.78027 0.007512
11697.34961 0.007256
11697.92969 0.007
11698.50977 0.006743
11699.08008 0.006487
11699.66016 0.00623
11700.24023 0.005974
11700.82031 0.005717
11701.40039 0.005461
11701.96973 0.005204
11702.54980 0.004948
11703.12988 0.004691
11703.70996 0.004639
11704.28027 0.004618
11704.86035 0.004596
11705.44043 0.004575
11706.01953 0.004553
11706.59961 0.004531
11707.16992 0.00451
11707.75000 0.004488
11708.33008 0.004467
11708.91016 0.004445
11709.49023 0.004424
11710.05957 0.004402
11710.63965 0.00438
11711.21973 0.004359
11711.79980 0.004337
11712.37988 0.004316
11712.95996 0.004294
11713.53027 0.004272
11714.11035 0.004251
11714.69043 0.004229
11715.26953 0.004208
11715.84961 0.004186
11716.42969 0.004164
11717.00000 0.004143
11717.58008 0.004121
11718.16016 0.0041
11718.74023 0.004078
11719.32031 0.004056
11719.90039 0.004035
11720.46973 0.004013
11721.04980 0.003992
11721.62988 0.003971
11722.20996 0.003949
11722.79004 0.003928
11723.37012 0.003906
11723.95020 0.003885
11724.53027 0.003863
11725.11035 0.003842
11725.67969 0.00382
11726.25977 0.003799
11726.83984 0.003778
11727.41992 0.003756
11728.00000 0.003735
11728.58008 0.003713
11729.16016 0.003692
11729.74023 0.00367
11730.32031 0.003649
11730.90039 0.003627
11731.46973 0.003605
11732.04980 0.003584
11732.62988 0.003562
11733.20996 0.00354
11733.79004 0.003519
11734.37012 0.003497
11734.95020 0.003475
11735.53027 0.003453
11736.11035 0.003432
11736.69043 0.00341
11737.26953 0.003388
11737.84961 0.003367
11738.42969 0.003345
11739.00977 0.003323
11739.58984 0.003302
11740.16992 0.00328
11740.75000 0.003258
11741.32031 0.003237
11741.90039 0.003215
11742.48047 0.003193
11743.05957 0.003171
11743.63965 0.00315
11744.21973 0.003128
11744.79980 0.003106
11745.37988 0.003085
11745.95996 0.003063
11746.54004 0.003041
11747.12012 0.003019
11747.70020 0.002998
11748.28027 0.002976
11748.86035 0.002954
11749.44043 0.002932
11750.01953 0.002911
11750.59961 0.002889
11751.17969 0.002867
11751.75977 0.002845
11752.33984 0.002824
11752.91992 0.002802
11753.50000 0.00278
11754.08008 0.002758
11754.66016 0.002737
11755.24023 0.002715
11755.83008 0.002693
11756.41016 0.002671
11756.99023 0.00265
11757.57031 0.002628
11758.15039 0.002606
11758.73047 0.002584
11759.30957 0.002563
11759.88965 0.002541
11760.46973 0.002519
11761.04980 0.002497
11761.62988 0.002475
11762.20996 0.002454
11762.79004 0.002432
11763.37012 0.00241
11763.95020 0.002388
11764.53027 0.002367
11765.11035 0.002345
11765.70020 0.002323
11766.28027 0.002301
11766.86035 0.002279
11767.44043 0.002258
11768.01953 0.002236
11768.59961 0.002214
11769.17969 0.002192
11769.75977 0.00217
11770.33984 0.002149
11770.91992 0.002127
11771.50977 0.002105
11772.08984 0.002083
11772.66992 0.002062
11773.25000 0.00204
11773.83008 0.002018
11774.41016 0.001997
11774.99023 0.001975
11775.57031 0.001953
11776.16016 0.001931
11776.74023 0.00191
11777.32031 0.001888
11777.90039 0.001866
11778.48047 0.001844
11779.05957 0.001822
11779.63965 0.001801
11780.23047 0.001779
11780.80957 0.001757
11781.38965 0.001735
11781.96973 0.001713
11782.54980 0.001691
11783.12988 0.00167
11783.71973 0.001648
11784.29980 0.001626
11784.87988 0.001604
11785.45996 0.001582
11786.04004 0.00156
11786.62012 0.001538
11787.20996 0.001516
11787.79004 0.001494
11788.37012 0.001473
11788.95020 0.001451
11789.54004 0.001429
11790.12012 0.001407
11790.70020 0.001385
11791.28027 0.001363
11791.86035 0.001341
11792.45020 0.001319
11793.03027 0.001297
11793.61035 0.001275
11794.19043 0.001254
11794.76953 0.001232
11795.36035 0.00121
11795.94043 0.001188
11796.51953 0.001166
11797.09961 0.001144
11797.69043 0.001122
11798.26953 0.0011
11798.84961 0.001078
11799.42969 0.001056
11800.01953 0.001034
11800.59961 0.001012
11801.17969 0.00099
11801.75977 0.000968
11802.34961 0.000946
11802.92969 0.000924
11803.50977 0.000912
11804.08984 0.000908
11804.67969 0.000905
11805.25977 0.000902
11805.83984 0.000898
11806.42969 0.000895
11807.00977 0.000892
11807.58984 0.000889
11808.16992 0.000885
11808.75977 0.000882
11809.33984 0.000879
11809.91992 0.000875
11810.50977 0.000872
11811.08984 0.000869
11811.66992 0.000866
11812.25977 0.000862
11812.83984 0.000859
11813.41992 0.000856
11814.00977 0.000853
11814.58984 0.000849
11815.16992 0.000846
11815.75977 0.000843
11816.33984 0.00084
11816.91992 0.000836
11817.50977 0.000833
11818.08984 0.00083
11818.66992 0.000827
11819.25977 0.000823
11819.83984 0.00082
11820.41992 0.000817
11821.00977 0.000814
11821.58984 0.00081
11822.16992 0.000807
11822.75977 0.000804
11823.33984 0.0008
11823.92969 0.000797
11824.50977 0.000794
11825.08984 0.000791
11825.67969 0.000787
11826.25977 0.000784
11826.83984 0.000781
11827.42969 0.000777
11828.00977 0.000774
11828.59961 0.000771
11829.17969 0.000768
11829.75977 0.000764
11830.34961 0.000761
11830.92969 0.000758
11831.51953 0.000754
11832.09961 0.000751
11832.69043 0.000748
11833.26953 0.000744
11833.84961 0.000741
11834.44043 0.000738
11835.01953 0.000735
11835.61035 0.000731
11836.19043 0.000728
11836.78027 0.000725
11837.36035 0.000721
11837.94043 0.000718
11838.53027 0.000715
11839.11035 0.000711
11839.70020 0.000708
11840.28027 0.000705
11840.87012 0.000702
11841.45020 0.000698
11842.04004 0.000695
11842.62012 0.000692
11843.20996 0.000688
11843.79004 0.000685
11844.37012 0.000682
11844.95996 0.000678
11845.54004 0.000675
11846.12988 0.000672
11846.70996 0.000668
11847.29980 0.000665
11847.87988 0.000662
11848.46973 0.000659
11849.04980 0.000655
11849.63965 0.000652
11850.21973 0.000649
11850.80957 0.000645
11851.38965 0.000642
11851.98047 0.000639
11852.55957 0.000636
11853.15039 0.000632
11853.73047 0.000629
11854.32031 0.000626
11854.90039 0.000622
11855.49023 0.000619
11856.08008 0.000616
11856.66016 0.000613
11857.25000 0.000609
11857.83008 0.000606
11858.41992 0.000603
11859.00000 0.000599
11859.58984 0.000596
11860.16992 0.000593
11860.75977 0.00059
11861.33984 0.000586
11861.92969 0.000583
11862.51953 0.00058
11863.09961 0.000576
11863.69043 0.000573
11864.26953 0.00057
11864.86035 0.000566
11865.44043 0.000563
11866.03027 0.00056
11866.62012 0.000556
11867.20020 0.000553
11867.79004 0.00055
11868.37012 0.000547
11868.95996 0.000543
11869.54004 0.00054
11870.12988 0.000537
11870.71973 0.000533
11871.29980 0.00053
11871.88965 0.000527
11872.48047 0.000523
11873.05957 0.00052
11873.65039 0.000517
11874.23047 0.000513
11874.82031 0.00051
11875.41016 0.000507
11875.99023 0.000503
11876.58008 0.0005
11877.16992 0.000497
11877.75000 0.000493
11878.33984 0.00049
11878.91992 0.000487
11879.50977 0.000483
11880.09961 0.00048
11880.67969 0.000477
11881.26953 0.000473
11881.86035 0.00047
11882.44043 0.000467
11883.03027 0.000463
11883.62012 0.00046
11884.20020 0.000457
11884.79004 0.000454
11885.37988 0.00045
11885.95996 0.000447
11886.54980 0.000444
11887.13965 0.00044
11887.71973 0.000437
11888.30957 0.000434
11888.90039 0.00043
11889.49023 0.000427
11890.07031 0.000424
11890.66016 0.00042
11891.25000 0.000417
11891.83008 0.000414
11892.41992 0.00041
11893.00977 0.000407
11893.59961 0.000404
11894.17969 0.0004
13083.59766 0.0
