# %ECSV 0.9
# ---
# datatype:
# - {name: wavelength, unit: Angstrom, datatype: float32}
# - {name: response, datatype: float32}
# meta: !!omap
# - {band_name: sdss_i}
# - {group_name: Astralux}
wavelength response
6079.50000 0.0
6755.00000 0.000978
6760.00000 0.001204
6765.00000 0.001486
6770.00000 0.001791
6775.00000 0.002194
6780.00000 0.002677
6785.00000 0.00322
6790.00000 0.003887
6795.00000 0.004694
6800.00000 0.005663
6805.00000 0.00681
6810.00000 0.008124
6815.00000 0.009687
6820.00000 0.011542
6825.00000 0.013684
6830.00000 0.016146
6835.00000 0.018997
6840.00000 0.02235
6845.00000 0.026178
6850.00000 0.030482
6855.00000 0.035431
6860.00000 0.040982
6865.00000 0.047228
6870.00000 0.054101
6875.00000 0.061675
6880.00000 0.070141
6885.00000 0.07947
6890.00000 0.08947
6895.00000 0.100451
6900.00000 0.11238
6905.00000 0.12481
6910.00000 0.138306
6915.00000 0.15275
6920.00000 0.167894
6925.00000 0.184047
6930.00000 0.20059
6935.00000 0.218115
6940.00000 0.236264
6945.00000 0.254736
6950.00000 0.273536
6955.00000 0.292881
6960.00000 0.312495
6965.00000 0.332433
6970.00000 0.352178
6975.00000 0.372582
6980.00000 0.392961
6985.00000 0.413185
6990.00000 0.433129
6995.00000 0.452968
7000.00000 0.472806
7005.00000 0.49215
7010.00000 0.510985
7015.00000 0.529808
7020.00000 0.548181
7025.00000 0.56609
7030.00000 0.583832
7035.00000 0.60084
7040.00000 0.617262
7045.00000 0.632955
7050.00000 0.647889
7055.00000 0.662867
7060.00000 0.677332
7065.00000 0.691192
7070.00000 0.704465
7075.00000 0.717521
7080.00000 0.729444
7085.00000 0.740984
7090.00000 0.752093
7095.00000 0.762615
7100.00000 0.772836
7105.00000 0.782301
7110.00000 0.791564
7115.00000 0.800498
7120.00000 0.808744
7125.00000 0.816421
7130.00000 0.824067
7135.00000 0.83132
7140.00000 0.83822
7145.00000 0.844718
7150.00000 0.850597
7155.00000 0.856828
7160.00000 0.862172
7165.00000 0.867332
7170.00000 0.872442
7175.00000 0.877226
7180.00000 0.881697
7185.00000 0.885715
7190.00000 0.88986
7195.00000 0.893511
7200.00000 0.896697
7205.00000 0.900504
7210.00000 0.903663
7215.00000 0.906827
7220.00000 0.909661
7225.00000 0.91238
7230.00000 0.915175
7235.00000 0.91763
7240.00000 0.919903
7245.00000 0.922311
7250.00000 0.924162
7255.00000 0.926566
7260.00000 0.928707
7265.00000 0.930263
7270.00000 0.932086
7275.00000 0.933543
7280.00000 0.935126
7285.00000 0.936862
7290.00000 0.938052
7295.00000 0.940127
7300.00000 0.941076
7305.00000 0.942112
7310.00000 0.943489
7315.00000 0.944596
7320.00000 0.945773
7325.00000 0.946796
7330.00000 0.947723
7335.00000 0.949206
7340.00000 0.949863
7345.00000 0.950816
7350.00000 0.951206
7355.00000 0.951898
7360.00000 0.952755
7365.00000 0.953305
7370.00000 0.953955
7375.00000 0.954865
7380.00000 0.955051
7385.00000 0.956042
7390.00000 0.956157
7395.00000 0.956638
7400.00000 0.957011
7405.00000 0.956993
7410.00000 0.957534
7415.00000 0.957609
7420.00000 0.958101
7425.00000 0.958107
7430.00000 0.958191
7435.00000 0.958332
7440.00000 0.958365
7445.00000 0.958433
7450.00000 0.958549
7455.00000 0.958451
7460.00000 0.958509
7465.00000 0.958468
7470.00000 0.958059
7475.00000 0.958282
7480.00000 0.958018
7485.00000 0.957721
7490.00000 0.957643
7495.00000 0.95767
7500.00000 0.957548
7505.00000 0.957274
7510.00000 0.957066
7515.00000 0.957209
7520.00000 0.957068
7525.00000 0.956882
7530.00000 0.95656
7535.00000 0.956461
7540.00000 0.956362
7545.00000 0.95615
7550.00000 0.956348
7555.00000 0.956176
7560.00000 0.956196
7565.00000 0.956461
7570.00000 0.956058
7575.00000 0.956294
7580.00000 0.956504
7585.00000 0.956348
7590.00000 0.95658
7595.00000 0.956835
7600.00000 0.95674
7605.00000 0.956876
7610.00000 0.956983
7615.00000 0.957286
7620.00000 0.957589
7625.00000 0.958063
7630.00000 0.958282
7635.00000 0.958473
7640.00000 0.959047
7645.00000 0.959029
7650.00000 0.959584
7655.00000 0.959717
7660.00000 0.959819
7665.00000 0.960455
7670.00000 0.960815
7675.00000 0.961443
7680.00000 0.961499
7685.00000 0.961456
7690.00000 0.962121
7695.00000 0.962197
7700.00000 0.962263
7705.00000 0.962542
7710.00000 0.962635
7715.00000 0.962837
7720.00000 0.963293
7725.00000 0.963149
7730.00000 0.963461
7735.00000 0.963222
7740.00000 0.963506
7745.00000 0.963353
7750.00000 0.963295
7755.00000 0.963369
7760.00000 0.963274
7765.00000 0.962915
7770.00000 0.963093
7775.00000 0.962635
7780.00000 0.96226
7785.00000 0.96215
7790.00000 0.961756
7795.00000 0.96166
7800.00000 0.96103
7805.00000 0.960832
7810.00000 0.960272
7815.00000 0.960031
7820.00000 0.959499
7825.00000 0.959213
7830.00000 0.958289
7835.00000 0.958084
7840.00000 0.957302
7845.00000 0.956875
7850.00000 0.956438
7855.00000 0.955691
7860.00000 0.955273
7865.00000 0.954221
7870.00000 0.954549
7875.00000 0.953556
7880.00000 0.952705
7885.00000 0.952411
7890.00000 0.951963
7895.00000 0.951363
7900.00000 0.950983
7905.00000 0.950041
7910.00000 0.950151
7915.00000 0.949308
7920.00000 0.949038
7925.00000 0.948904
7930.00000 0.948136
7935.00000 0.94764
7940.00000 0.947754
7945.00000 0.947231
7950.00000 0.94751
7955.00000 0.946805
7960.00000 0.946968
7965.00000 0.946898
7970.00000 0.946911
7975.00000 0.946862
7980.00000 0.946746
7985.00000 0.946994
7990.00000 0.947549
7995.00000 0.947644
8000.00000 0.94764
8005.00000 0.94867
8010.00000 0.948867
8015.00000 0.948871
8020.00000 0.94962
8025.00000 0.949735
8030.00000 0.950404
8035.00000 0.951543
8040.00000 0.951799
8045.00000 0.952183
8050.00000 0.952879
8055.00000 0.953418
8060.00000 0.954155
8065.00000 0.954982
8070.00000 0.955392
8075.00000 0.956022
8080.00000 0.956737
8085.00000 0.957239
8090.00000 0.957879
8095.00000 0.958222
8100.00000 0.958839
8105.00000 0.959095
8110.00000 0.959345
8115.00000 0.959278
8120.00000 0.959073
8125.00000 0.959201
8130.00000 0.958684
8135.00000 0.958338
8140.00000 0.957829
8145.00000 0.956868
8150.00000 0.956272
8155.00000 0.955205
8160.00000 0.953929
8165.00000 0.952633
8170.00000 0.951259
8175.00000 0.950486
8180.00000 0.948716
8185.00000 0.946927
8190.00000 0.945823
8195.00000 0.94433
8200.00000 0.942667
8205.00000 0.941499
8210.00000 0.940224
8215.00000 0.939117
8220.00000 0.938106
8225.00000 0.938071
8230.00000 0.937225
8235.00000 0.937572
8240.00000 0.938107
8245.00000 0.938407
8250.00000 0.939323
8255.00000 0.940664
8260.00000 0.942281
8265.00000 0.943883
8270.00000 0.945969
8275.00000 0.948287
8280.00000 0.94935
8285.00000 0.950984
8290.00000 0.952213
8295.00000 0.951811
8300.00000 0.95034
8305.00000 0.946985
8310.00000 0.941607
8315.00000 0.93284
8320.00000 0.920053
8325.00000 0.903959
8330.00000 0.882847
8335.00000 0.856761
8340.00000 0.825951
8345.00000 0.789663
8350.00000 0.749982
8355.00000 0.706838
8360.00000 0.658685
8365.00000 0.60886
8370.00000 0.558465
8375.00000 0.507572
8380.00000 0.458962
8385.00000 0.412235
8390.00000 0.368198
8395.00000 0.327854
8400.00000 0.289513
8405.00000 0.255469
8410.00000 0.225114
8415.00000 0.197499
8420.00000 0.173489
8425.00000 0.152012
8430.00000 0.133172
8435.00000 0.116872
8440.00000 0.102217
8445.00000 0.089704
8450.00000 0.07887
8455.00000 0.069269
8460.00000 0.061047
8465.00000 0.053701
8470.00000 0.047335
8475.00000 0.042096
8480.00000 0.037189
8485.00000 0.033069
8490.00000 0.02951
8495.00000 0.02613
8500.00000 0.02336
8505.00000 0.02091
8510.00000 0.018624
8515.00000 0.016795
8520.00000 0.015028
8525.00000 0.013562
8530.00000 0.012178
8535.00000 0.01099
8540.00000 0.009856
8545.00000 0.009014
8550.00000 0.008104
8555.00000 0.007329
8560.00000 0.006684
8565.00000 0.006026
8570.00000 0.005463
8575.00000 0.005031
8580.00000 0.004594
8585.00000 0.004151
8590.00000 0.003769
8595.00000 0.003495
8600.00000 0.003178
8605.00000 0.002923
8610.00000 0.00266
8615.00000 0.002456
8620.00000 0.002283
8625.00000 0.002086
8630.00000 0.001936
8635.00000 0.001735
8640.00000 0.001656
8645.00000 0.001531
8650.00000 0.001437
8655.00000 0.001282
8660.00000 0.001231
8665.00000 0.001041
8670.00000 0.00104
8675.00000 0.000949
9542.50000 0.0
