# %ECSV 0.9
# ---
# datatype:
# - {name: wavelength, unit: Angstrom, datatype: float32}
# - {name: response, datatype: float32}
# meta: !!omap
# - {band_name: f_0990}
# - {group_name: LWS}
wavelength response
85077.00000 0.0
94530.00000 0.004058
94540.00000 0.004141
94550.00000 0.004226
94560.00000 0.004312
94570.00000 0.0044
94580.00000 0.004489
94600.00000 0.004671
94620.00000 0.004859
94630.00000 0.004956
94640.00000 0.005054
94650.00000 0.005153
94660.00000 0.005254
94680.00000 0.005461
94690.00000 0.005567
94700.00000 0.005674
94720.00000 0.005893
94730.00000 0.006005
94740.00000 0.006119
94750.00000 0.006234
94760.00000 0.006351
94780.00000 0.00659
94800.00000 0.006836
94810.00000 0.006961
94820.00000 0.007089
94830.00000 0.007218
94840.00000 0.007349
94850.00000 0.007482
94860.00000 0.007617
94880.00000 0.007894
94900.00000 0.008181
94920.00000 0.008477
94930.00000 0.008629
94940.00000 0.008784
94950.00000 0.008942
94960.00000 0.009102
94980.00000 0.009432
95010.00000 0.00995
95030.00000 0.01031
95050.00000 0.01069
95060.00000 0.01088
95070.00000 0.01108
95080.00000 0.01128
95090.00000 0.01148
95110.00000 0.01191
95130.00000 0.01234
95150.00000 0.0128
95160.00000 0.01303
95170.00000 0.01327
95180.00000 0.01351
95190.00000 0.01376
95210.00000 0.01427
95230.00000 0.0148
95250.00000 0.01535
95260.00000 0.01563
95270.00000 0.01591
95280.00000 0.01621
95290.00000 0.0165
95310.00000 0.01712
95330.00000 0.01775
95350.00000 0.01843
95360.00000 0.01878
95370.00000 0.01914
95380.00000 0.01952
95390.00000 0.01991
95410.00000 0.02074
95430.00000 0.02163
95450.00000 0.0226
95460.00000 0.02311
95470.00000 0.02365
95480.00000 0.02421
95490.00000 0.02479
95510.00000 0.02603
95530.00000 0.02737
95550.00000 0.02882
95560.00000 0.02959
95570.00000 0.03039
95580.00000 0.03122
95590.00000 0.03209
95610.00000 0.03391
95630.00000 0.03588
95650.00000 0.03799
95660.00000 0.0391
95670.00000 0.04024
95680.00000 0.04143
95690.00000 0.04266
95710.00000 0.04523
95730.00000 0.04797
95750.00000 0.05088
95760.00000 0.05241
95770.00000 0.05397
95780.00000 0.05559
95790.00000 0.05725
95810.00000 0.06072
95830.00000 0.06438
95850.00000 0.06823
95860.00000 0.07024
95870.00000 0.0723
95880.00000 0.07441
95890.00000 0.07657
95910.00000 0.08105
95930.00000 0.08574
95950.00000 0.09066
95960.00000 0.0932
95970.00000 0.09579
95980.00000 0.09844
95990.00000 0.1011
96010.00000 0.1067
96030.00000 0.1125
96050.00000 0.1185
96060.00000 0.1217
96070.00000 0.1248
96080.00000 0.1281
96090.00000 0.1314
96110.00000 0.1381
96130.00000 0.1452
96150.00000 0.1525
96160.00000 0.1562
96170.00000 0.1601
96180.00000 0.164
96190.00000 0.1679
96210.00000 0.176
96230.00000 0.1844
96250.00000 0.193
96260.00000 0.1975
96270.00000 0.202
96280.00000 0.2066
96290.00000 0.2112
96310.00000 0.2207
96330.00000 0.2305
96350.00000 0.2406
96360.00000 0.2457
96370.00000 0.2509
96380.00000 0.2562
96390.00000 0.2616
96410.00000 0.2725
96430.00000 0.2837
96450.00000 0.2952
96460.00000 0.3011
96470.00000 0.307
96480.00000 0.313
96490.00000 0.3191
96510.00000 0.3314
96530.00000 0.3439
96550.00000 0.3566
96560.00000 0.363
96570.00000 0.3694
96580.00000 0.3758
96590.00000 0.3823
96610.00000 0.3953
96630.00000 0.4084
96650.00000 0.4216
96660.00000 0.4281
96670.00000 0.4347
96680.00000 0.4413
96690.00000 0.4478
96710.00000 0.4609
96730.00000 0.4739
96750.00000 0.4869
96760.00000 0.4933
96770.00000 0.4997
96780.00000 0.5061
96790.00000 0.5124
96810.00000 0.5249
96830.00000 0.5372
96850.00000 0.5493
96860.00000 0.5552
96870.00000 0.5611
96880.00000 0.5669
96890.00000 0.5726
96910.00000 0.5837
96930.00000 0.5945
96950.00000 0.6048
96960.00000 0.6098
96970.00000 0.6147
96980.00000 0.6195
96990.00000 0.6241
97010.00000 0.6331
97030.00000 0.6416
97050.00000 0.6497
97060.00000 0.6535
97070.00000 0.6573
97080.00000 0.661
97090.00000 0.6646
97110.00000 0.6715
97130.00000 0.678
97150.00000 0.6843
97160.00000 0.6873
97170.00000 0.6902
97180.00000 0.693
97190.00000 0.6958
97210.00000 0.7012
97230.00000 0.7064
97250.00000 0.7115
97260.00000 0.714
97270.00000 0.7164
97280.00000 0.7188
97290.00000 0.7212
97310.00000 0.726
97330.00000 0.7308
97350.00000 0.7356
97360.00000 0.7379
97370.00000 0.7403
97380.00000 0.7427
97390.00000 0.745
97410.00000 0.7497
97430.00000 0.7544
97450.00000 0.759
97460.00000 0.7612
97470.00000 0.7635
97480.00000 0.7657
97490.00000 0.7679
97510.00000 0.7723
97530.00000 0.7765
97550.00000 0.7807
97560.00000 0.7827
97570.00000 0.7847
97580.00000 0.7866
97590.00000 0.7885
97610.00000 0.7922
97630.00000 0.7958
97650.00000 0.7992
97660.00000 0.8008
97670.00000 0.8023
97680.00000 0.8038
97690.00000 0.8053
97700.00000 0.8067
97710.00000 0.808
97730.00000 0.8105
97750.00000 0.8128
97760.00000 0.8138
97770.00000 0.8147
97780.00000 0.8156
97790.00000 0.8164
97810.00000 0.8178
97820.00000 0.8184
97830.00000 0.819
97850.00000 0.8199
97860.00000 0.8202
97870.00000 0.8205
97880.00000 0.8208
97890.00000 0.821
97910.00000 0.8212
97930.00000 0.8212
97940.00000 0.8212
97950.00000 0.8211
97960.00000 0.821
97970.00000 0.8208
97980.00000 0.8206
97990.00000 0.8203
98010.00000 0.8197
98030.00000 0.819
98050.00000 0.8182
98060.00000 0.8178
98070.00000 0.8174
98080.00000 0.8169
98090.00000 0.8164
98110.00000 0.8154
98130.00000 0.8143
98150.00000 0.8131
98160.00000 0.8125
98170.00000 0.8118
98180.00000 0.8112
98190.00000 0.8105
98210.00000 0.8092
98230.00000 0.8077
98250.00000 0.8063
98260.00000 0.8055
98270.00000 0.8047
98280.00000 0.804
98290.00000 0.8032
98300.00000 0.8024
98310.00000 0.8016
98330.00000 0.7999
98350.00000 0.7983
98360.00000 0.7974
98370.00000 0.7966
98380.00000 0.7957
98390.00000 0.7948
98410.00000 0.7931
98420.00000 0.7922
98430.00000 0.7913
98450.00000 0.7896
98460.00000 0.7887
98470.00000 0.7878
98480.00000 0.7869
98490.00000 0.786
98510.00000 0.7842
98530.00000 0.7824
98540.00000 0.7815
98550.00000 0.7807
98560.00000 0.7798
98570.00000 0.7789
98580.00000 0.778
98590.00000 0.7772
98610.00000 0.7754
98630.00000 0.7737
98650.00000 0.7721
98660.00000 0.7712
98670.00000 0.7704
98680.00000 0.7696
98690.00000 0.7688
98710.00000 0.7673
98730.00000 0.7658
98750.00000 0.7643
98760.00000 0.7636
98770.00000 0.7629
98780.00000 0.7622
98790.00000 0.7615
98810.00000 0.7602
98830.00000 0.759
98850.00000 0.7578
98860.00000 0.7573
98870.00000 0.7567
98880.00000 0.7562
98890.00000 0.7557
98900.00000 0.7552
98910.00000 0.7547
98930.00000 0.7539
98950.00000 0.7531
98960.00000 0.7527
98970.00000 0.7524
98980.00000 0.7521
98990.00000 0.7518
99010.00000 0.7513
99020.00000 0.751
99030.00000 0.7508
99050.00000 0.7505
99060.00000 0.7504
99070.00000 0.7502
99080.00000 0.7501
99090.00000 0.7501
99110.00000 0.75
99130.00000 0.7499
99140.00000 0.7499
99150.00000 0.75
99160.00000 0.75
99170.00000 0.7501
99180.00000 0.7501
99190.00000 0.7502
99210.00000 0.7505
99230.00000 0.7508
99250.00000 0.7511
99260.00000 0.7513
99270.00000 0.7515
99280.00000 0.7517
99290.00000 0.752
99310.00000 0.7525
99330.00000 0.753
99350.00000 0.7536
99360.00000 0.7539
99370.00000 0.7542
99380.00000 0.7545
99390.00000 0.7549
99410.00000 0.7556
99430.00000 0.7563
99450.00000 0.7571
99460.00000 0.7575
99470.00000 0.7578
99480.00000 0.7583
99490.00000 0.7587
99500.00000 0.7591
99510.00000 0.7595
99530.00000 0.7604
99550.00000 0.7612
99560.00000 0.7617
99570.00000 0.7621
99580.00000 0.7626
99590.00000 0.763
99610.00000 0.7639
99620.00000 0.7644
99630.00000 0.7648
99650.00000 0.7658
99660.00000 0.7662
99670.00000 0.7667
99680.00000 0.7672
99690.00000 0.7676
99700.00000 0.7681
99710.00000 0.7686
99730.00000 0.7695
99740.00000 0.7699
99750.00000 0.7704
99760.00000 0.7709
99770.00000 0.7713
99780.00000 0.7718
99790.00000 0.7722
99810.00000 0.7731
99830.00000 0.774
99850.00000 0.7749
99860.00000 0.7753
99870.00000 0.7758
99880.00000 0.7762
99890.00000 0.7766
99910.00000 0.7775
99930.00000 0.7784
99950.00000 0.7792
99960.00000 0.7796
99970.00000 0.7801
99980.00000 0.7805
99990.00000 0.7809
100000.00000 0.7813
100100.00000 0.7854
100200.00000 0.7893
100300.00000 0.7931
100400.00000 0.7968
100500.00000 0.8003
100600.00000 0.8036
100700.00000 0.8068
100800.00000 0.8099
100900.00000 0.8127
101000.00000 0.815
101100.00000 0.8162
101200.00000 0.8161
101300.00000 0.8144
101400.00000 0.8113
101500.00000 0.807
101600.00000 0.8016
101700.00000 0.7956
101800.00000 0.7891
101900.00000 0.7823
102000.00000 0.7756
102100.00000 0.7693
102200.00000 0.7635
102300.00000 0.7585
102400.00000 0.7545
102500.00000 0.7519
102600.00000 0.7508
102700.00000 0.7514
102800.00000 0.7538
102900.00000 0.7574
103000.00000 0.7611
103100.00000 0.764
103200.00000 0.7651
103300.00000 0.7632
103400.00000 0.7573
103500.00000 0.7462
103600.00000 0.7287
103700.00000 0.7031
103800.00000 0.6678
103900.00000 0.6224
104000.00000 0.5672
104100.00000 0.5029
104200.00000 0.4329
104300.00000 0.3633
104400.00000 0.3008
104500.00000 0.2491
104600.00000 0.2072
104700.00000 0.1731
104800.00000 0.1453
104900.00000 0.1226
105000.00000 0.1041
105100.00000 0.08884
105200.00000 0.07621
105300.00000 0.06582
105400.00000 0.05725
105500.00000 0.05014
105600.00000 0.04416
105700.00000 0.03912
105800.00000 0.03484
105900.00000 0.03116
106000.00000 0.02792
106100.00000 0.02496
106200.00000 0.02215
106300.00000 0.01945
106400.00000 0.01688
106500.00000 0.01446
106600.00000 0.0122
106700.00000 0.01011
106800.00000 0.008204
106900.00000 0.006501
107000.00000 0.005013
117700.00000 0.0
