# %ECSV 0.9
# ---
# datatype:
# - {name: wavelength, unit: Angstrom, datatype: float32}
# - {name: response, datatype: float32}
# meta: !!omap
# - {band_name: JH}
# - {group_name: Flamingos2}
wavelength response
7942.50000 0.0
8825.00000 0.0046
8830.00000 0.0048
8835.00000 0.0053
8840.00000 0.0056
8845.00000 0.0062
8850.00000 0.0063
8855.00000 0.007
8860.00000 0.0075
8865.00000 0.0079
8870.00000 0.0087
8875.00000 0.0093
8880.00000 0.0104
8885.00000 0.0117
8890.00000 0.0133
8895.00000 0.0154
8900.00000 0.0177
8905.00000 0.0208
8910.00000 0.0248
8915.00000 0.0299
8920.00000 0.0363
8925.00000 0.0435
8930.00000 0.0524
8935.00000 0.0622
8940.00000 0.0731
8945.00000 0.0854
8950.00000 0.0967
8955.00000 0.1078
8960.00000 0.1172
8965.00000 0.1249
8970.00000 0.1314
8975.00000 0.137
8980.00000 0.1423
8985.00000 0.1471
8990.00000 0.1523
8995.00000 0.158
9000.00000 0.1646
9005.00000 0.1726
9010.00000 0.1816
9015.00000 0.1914
9020.00000 0.2019
9025.00000 0.2131
9030.00000 0.2242
9035.00000 0.2353
9040.00000 0.2469
9045.00000 0.2573
9050.00000 0.2675
9055.00000 0.2758
9060.00000 0.282
9065.00000 0.2881
9070.00000 0.292
9075.00000 0.2947
9080.00000 0.2962
9085.00000 0.296
9090.00000 0.2958
9095.00000 0.2953
9100.00000 0.2941
9105.00000 0.2934
9110.00000 0.2929
9115.00000 0.2926
9120.00000 0.2937
9125.00000 0.2947
9130.00000 0.2963
9135.00000 0.2985
9140.00000 0.3006
9145.00000 0.3017
9150.00000 0.3035
9155.00000 0.304
9160.00000 0.3048
9165.00000 0.3051
9170.00000 0.3048
9175.00000 0.3045
9180.00000 0.3039
9185.00000 0.303
9190.00000 0.3026
9195.00000 0.302
9200.00000 0.3024
9205.00000 0.3032
9210.00000 0.3046
9215.00000 0.3065
9220.00000 0.3085
9225.00000 0.3105
9230.00000 0.3133
9235.00000 0.3149
9240.00000 0.3165
9245.00000 0.3172
9250.00000 0.317
9255.00000 0.3161
9260.00000 0.3149
9265.00000 0.3132
9270.00000 0.3109
9275.00000 0.3087
9280.00000 0.306
9285.00000 0.3035
9290.00000 0.3007
9295.00000 0.2983
9300.00000 0.2963
9305.00000 0.294
9310.00000 0.2921
9315.00000 0.2906
9320.00000 0.2889
9325.00000 0.2878
9330.00000 0.2866
9335.00000 0.286
9340.00000 0.2852
9345.00000 0.2849
9350.00000 0.285
9355.00000 0.2856
9360.00000 0.2861
9365.00000 0.2884
9370.00000 0.2909
9375.00000 0.2936
9380.00000 0.2972
9385.00000 0.3004
9390.00000 0.3037
9395.00000 0.3079
9400.00000 0.3121
9405.00000 0.3152
9410.00000 0.3189
9415.00000 0.3213
9420.00000 0.3233
9425.00000 0.326
9430.00000 0.3272
9435.00000 0.3281
9440.00000 0.3287
9445.00000 0.3273
9450.00000 0.3276
9455.00000 0.3267
9460.00000 0.326
9465.00000 0.3262
9470.00000 0.3263
9475.00000 0.3267
9480.00000 0.328
9485.00000 0.329
9490.00000 0.3307
9495.00000 0.3322
9500.00000 0.3338
9505.00000 0.3344
9510.00000 0.3351
9515.00000 0.3358
9520.00000 0.3366
9525.00000 0.3384
9530.00000 0.3401
9535.00000 0.3418
9540.00000 0.3431
9545.00000 0.3448
9550.00000 0.3462
9555.00000 0.3471
9560.00000 0.3489
9565.00000 0.3497
9570.00000 0.3508
9575.00000 0.3515
9580.00000 0.3512
9585.00000 0.3502
9590.00000 0.349
9595.00000 0.3463
9600.00000 0.3437
9605.00000 0.341
9610.00000 0.3381
9615.00000 0.3357
9620.00000 0.3331
9625.00000 0.3317
9630.00000 0.3323
9635.00000 0.3325
9640.00000 0.3346
9645.00000 0.3379
9650.00000 0.3417
9655.00000 0.3467
9660.00000 0.3525
9665.00000 0.3588
9670.00000 0.3667
9675.00000 0.3743
9680.00000 0.381
9685.00000 0.3871
9690.00000 0.3914
9695.00000 0.3942
9700.00000 0.3964
9705.00000 0.3957
9710.00000 0.3943
9715.00000 0.3913
9720.00000 0.3865
9725.00000 0.3824
9730.00000 0.3784
9735.00000 0.374
9740.00000 0.3707
9745.00000 0.3685
9750.00000 0.3684
9755.00000 0.3701
9760.00000 0.3721
9765.00000 0.3764
9770.00000 0.3821
9775.00000 0.3894
9780.00000 0.3984
9785.00000 0.4078
9790.00000 0.4171
9795.00000 0.4277
9800.00000 0.4387
9805.00000 0.4482
9810.00000 0.4574
9815.00000 0.464
9820.00000 0.4705
9825.00000 0.4761
9830.00000 0.4796
9835.00000 0.4816
9840.00000 0.4825
9845.00000 0.4825
9850.00000 0.4831
9855.00000 0.4823
9860.00000 0.4816
9865.00000 0.4814
9870.00000 0.4812
9875.00000 0.4808
9880.00000 0.4819
9885.00000 0.483
9890.00000 0.485
9895.00000 0.4861
9900.00000 0.4882
9905.00000 0.4895
9910.00000 0.4906
9915.00000 0.4916
9920.00000 0.4924
9925.00000 0.4937
9930.00000 0.4943
9935.00000 0.4953
9940.00000 0.4959
9945.00000 0.4979
9950.00000 0.5005
9955.00000 0.5026
9960.00000 0.5048
9965.00000 0.5074
9970.00000 0.5098
9975.00000 0.513
9980.00000 0.5144
9985.00000 0.5157
9990.00000 0.517
9995.00000 0.5177
10000.00000 0.5179
10005.00000 0.5177
10010.00000 0.5165
10015.00000 0.5157
10020.00000 0.5138
10025.00000 0.5116
10030.00000 0.509
10035.00000 0.5065
10040.00000 0.5043
10045.00000 0.5026
10050.00000 0.5004
10055.00000 0.4975
10060.00000 0.4952
10065.00000 0.4921
10070.00000 0.4905
10075.00000 0.4887
10080.00000 0.4862
10085.00000 0.4849
10090.00000 0.4834
10095.00000 0.4821
10100.00000 0.4822
10105.00000 0.4805
10110.00000 0.4808
10115.00000 0.4812
10120.00000 0.4813
10125.00000 0.4826
10130.00000 0.4843
10135.00000 0.4854
10140.00000 0.4877
10145.00000 0.4893
10150.00000 0.4911
10155.00000 0.4933
10160.00000 0.4931
10165.00000 0.495
10170.00000 0.496
10175.00000 0.4967
10180.00000 0.4968
10185.00000 0.4966
10190.00000 0.4956
10195.00000 0.4953
10200.00000 0.4929
10205.00000 0.4905
10210.00000 0.4886
10215.00000 0.4856
10220.00000 0.4835
10225.00000 0.4821
10230.00000 0.4808
10235.00000 0.4807
10240.00000 0.4808
10245.00000 0.4803
10250.00000 0.481
10255.00000 0.4816
10260.00000 0.4826
10265.00000 0.4839
10270.00000 0.4851
10275.00000 0.4863
10280.00000 0.4876
10285.00000 0.4889
10290.00000 0.4901
10295.00000 0.4905
10300.00000 0.4904
10305.00000 0.4907
10310.00000 0.4896
10315.00000 0.4875
10320.00000 0.4869
10325.00000 0.4844
10330.00000 0.483
10335.00000 0.4819
10340.00000 0.4799
10345.00000 0.4799
10350.00000 0.4792
10355.00000 0.4787
10360.00000 0.4807
10365.00000 0.4804
10370.00000 0.4807
10375.00000 0.4829
10380.00000 0.4845
10385.00000 0.4868
10390.00000 0.4896
10395.00000 0.4918
10400.00000 0.4953
10405.00000 0.5003
10410.00000 0.5038
10415.00000 0.5088
10420.00000 0.5127
10425.00000 0.516
10430.00000 0.5204
10435.00000 0.5236
10440.00000 0.5268
10445.00000 0.5299
10450.00000 0.5319
10455.00000 0.5331
10460.00000 0.5344
10465.00000 0.5358
10470.00000 0.5373
10475.00000 0.5374
10480.00000 0.5379
10485.00000 0.5402
10490.00000 0.5412
10495.00000 0.543
10500.00000 0.545
10505.00000 0.5444
10510.00000 0.545
10515.00000 0.5455
10520.00000 0.5458
10525.00000 0.5464
10530.00000 0.5474
10535.00000 0.5474
10540.00000 0.5495
10545.00000 0.5507
10550.00000 0.5518
10555.00000 0.5545
10560.00000 0.5555
10565.00000 0.557
10570.00000 0.5579
10575.00000 0.5585
10580.00000 0.559
10585.00000 0.5591
10590.00000 0.5576
10595.00000 0.5567
10600.00000 0.5541
10605.00000 0.5513
10610.00000 0.5491
10615.00000 0.5453
10620.00000 0.5425
10625.00000 0.5393
10630.00000 0.5342
10635.00000 0.5326
10640.00000 0.5293
10645.00000 0.5261
10650.00000 0.5239
10655.00000 0.5228
10660.00000 0.521
10665.00000 0.5206
10670.00000 0.5204
10675.00000 0.5213
10680.00000 0.5224
10685.00000 0.5251
10690.00000 0.5298
10695.00000 0.5343
10700.00000 0.5384
10705.00000 0.543
10710.00000 0.5463
10715.00000 0.5502
10720.00000 0.5544
10725.00000 0.5582
10730.00000 0.5609
10735.00000 0.5647
10740.00000 0.5673
10745.00000 0.5712
10750.00000 0.575
10755.00000 0.5777
10760.00000 0.58
10765.00000 0.5818
10770.00000 0.5827
10775.00000 0.5847
10780.00000 0.5846
10785.00000 0.5844
10790.00000 0.5858
10795.00000 0.5848
10800.00000 0.5846
10805.00000 0.583
10810.00000 0.5815
10815.00000 0.5816
10820.00000 0.5796
10825.00000 0.578
10830.00000 0.5771
10835.00000 0.5753
10840.00000 0.5741
10845.00000 0.5747
10850.00000 0.5744
10855.00000 0.5757
10860.00000 0.5767
10865.00000 0.5759
10870.00000 0.5771
10875.00000 0.5763
10880.00000 0.5765
10885.00000 0.5775
10890.00000 0.5774
10895.00000 0.5784
10900.00000 0.5797
10905.00000 0.5808
10910.00000 0.5827
10915.00000 0.584
10920.00000 0.5847
10925.00000 0.5864
10930.00000 0.5877
10935.00000 0.5875
10940.00000 0.5887
10945.00000 0.5869
10950.00000 0.5852
10955.00000 0.5829
10960.00000 0.5808
10965.00000 0.5818
10970.00000 0.583
10975.00000 0.584
10980.00000 0.5856
10985.00000 0.5868
10990.00000 0.5877
10995.00000 0.59
11000.00000 0.5912
11005.00000 0.5897
11010.00000 0.5894
11015.00000 0.5883
11020.00000 0.5875
11025.00000 0.5891
11030.00000 0.5892
11035.00000 0.5909
11040.00000 0.5915
11045.00000 0.593
11050.00000 0.5958
11055.00000 0.5968
11060.00000 0.5973
11065.00000 0.5996
11070.00000 0.5992
11075.00000 0.6005
11080.00000 0.6009
11085.00000 0.5998
11090.00000 0.6003
11095.00000 0.6002
11100.00000 0.5985
11105.00000 0.597
11110.00000 0.5944
11115.00000 0.5926
11120.00000 0.5917
11125.00000 0.5914
11130.00000 0.5931
11135.00000 0.5944
11140.00000 0.5961
11145.00000 0.5975
11150.00000 0.5986
11155.00000 0.5998
11160.00000 0.6021
11165.00000 0.6017
11170.00000 0.6019
11175.00000 0.602
11180.00000 0.6017
11185.00000 0.6013
11190.00000 0.6012
11195.00000 0.5995
11200.00000 0.5982
11205.00000 0.5998
11210.00000 0.6001
11215.00000 0.6011
11220.00000 0.6009
11225.00000 0.5994
11230.00000 0.5988
11235.00000 0.5956
11240.00000 0.5961
11245.00000 0.5933
11250.00000 0.5903
11255.00000 0.5884
11260.00000 0.5868
11265.00000 0.5873
11270.00000 0.588
11275.00000 0.5883
11280.00000 0.5903
11285.00000 0.5927
11290.00000 0.5945
11295.00000 0.5972
11300.00000 0.6
11305.00000 0.6022
11310.00000 0.6054
11315.00000 0.6067
11320.00000 0.6084
11325.00000 0.6085
11330.00000 0.6075
11335.00000 0.6078
11340.00000 0.6068
11345.00000 0.6046
11350.00000 0.6034
11355.00000 0.6019
11360.00000 0.599
11365.00000 0.5986
11370.00000 0.5965
11375.00000 0.5943
11380.00000 0.5935
11385.00000 0.5914
11390.00000 0.5897
11395.00000 0.5902
11400.00000 0.5896
11405.00000 0.5877
11410.00000 0.5867
11415.00000 0.5847
11420.00000 0.5854
11425.00000 0.5872
11430.00000 0.5896
11435.00000 0.5927
11440.00000 0.5945
11445.00000 0.5988
11450.00000 0.6034
11455.00000 0.6061
11460.00000 0.6103
11465.00000 0.6117
11470.00000 0.6118
11475.00000 0.6128
11480.00000 0.6132
11485.00000 0.6114
11490.00000 0.6109
11495.00000 0.6083
11500.00000 0.6056
11505.00000 0.6042
11510.00000 0.6015
11515.00000 0.5989
11520.00000 0.5962
11525.00000 0.5931
11530.00000 0.5917
11535.00000 0.5896
11540.00000 0.5871
11545.00000 0.5868
11550.00000 0.5861
11555.00000 0.5851
11560.00000 0.5867
11565.00000 0.5866
11570.00000 0.5876
11575.00000 0.5888
11580.00000 0.5916
11585.00000 0.5942
11590.00000 0.5977
11595.00000 0.6005
11600.00000 0.6046
11605.00000 0.6092
11610.00000 0.6144
11615.00000 0.6201
11620.00000 0.6232
11625.00000 0.6266
11630.00000 0.6306
11635.00000 0.6329
11640.00000 0.6346
11645.00000 0.6362
11650.00000 0.6359
11655.00000 0.635
11660.00000 0.6335
11665.00000 0.6311
11670.00000 0.6286
11675.00000 0.625
11680.00000 0.6214
11685.00000 0.6181
11690.00000 0.6145
11695.00000 0.6108
11700.00000 0.6066
11705.00000 0.6021
11710.00000 0.599
11715.00000 0.5949
11720.00000 0.5922
11725.00000 0.5894
11730.00000 0.586
11735.00000 0.5844
11740.00000 0.5823
11745.00000 0.5823
11750.00000 0.5829
11755.00000 0.5841
11760.00000 0.5858
11765.00000 0.5886
11770.00000 0.5921
11775.00000 0.5948
11780.00000 0.5993
11785.00000 0.6028
11790.00000 0.6059
11795.00000 0.6099
11800.00000 0.6132
11805.00000 0.6164
11810.00000 0.6196
11815.00000 0.6215
11820.00000 0.6242
11825.00000 0.627
11830.00000 0.6299
11835.00000 0.6321
11840.00000 0.6332
11845.00000 0.635
11850.00000 0.6373
11855.00000 0.6375
11860.00000 0.638
11865.00000 0.6382
11870.00000 0.6367
11875.00000 0.6357
11880.00000 0.6344
11885.00000 0.6323
11890.00000 0.6304
11895.00000 0.6277
11900.00000 0.6253
11905.00000 0.6244
11910.00000 0.6218
11915.00000 0.62
11920.00000 0.6185
11925.00000 0.6161
11930.00000 0.6146
11935.00000 0.613
11940.00000 0.6108
11945.00000 0.6096
11950.00000 0.6078
11955.00000 0.6059
11960.00000 0.6049
11965.00000 0.6038
11970.00000 0.6027
11975.00000 0.6017
11980.00000 0.6004
11985.00000 0.5995
11990.00000 0.5978
11995.00000 0.5962
12000.00000 0.596
12005.00000 0.5968
12010.00000 0.596
12015.00000 0.5971
12020.00000 0.5982
12025.00000 0.5979
12030.00000 0.5993
12035.00000 0.6001
12040.00000 0.6013
12045.00000 0.6026
12050.00000 0.6032
12055.00000 0.6047
12060.00000 0.6062
12065.00000 0.6074
12070.00000 0.6093
12075.00000 0.6114
12080.00000 0.6131
12085.00000 0.6154
12090.00000 0.617
12095.00000 0.6193
12100.00000 0.6213
12105.00000 0.6237
12110.00000 0.6263
12115.00000 0.6288
12120.00000 0.6308
12125.00000 0.6323
12130.00000 0.6336
12135.00000 0.6341
12140.00000 0.6349
12145.00000 0.6357
12150.00000 0.6354
12155.00000 0.6361
12160.00000 0.636
12165.00000 0.636
12170.00000 0.6363
12175.00000 0.6361
12180.00000 0.6374
12185.00000 0.6365
12190.00000 0.6366
12195.00000 0.637
12200.00000 0.6367
12205.00000 0.6367
12210.00000 0.6372
12215.00000 0.6371
12220.00000 0.6377
12225.00000 0.6399
12230.00000 0.6404
12235.00000 0.6422
12240.00000 0.644
12245.00000 0.6443
12250.00000 0.6449
12255.00000 0.6462
12260.00000 0.6469
12265.00000 0.6476
12270.00000 0.6468
12275.00000 0.6471
12280.00000 0.6475
12285.00000 0.6473
12290.00000 0.6476
12295.00000 0.6477
12300.00000 0.6477
12305.00000 0.6481
12310.00000 0.6481
12315.00000 0.6477
12320.00000 0.6479
12325.00000 0.6468
12330.00000 0.6473
12335.00000 0.6464
12340.00000 0.6459
12345.00000 0.6463
12350.00000 0.6463
12355.00000 0.6463
12360.00000 0.6468
12365.00000 0.6483
12370.00000 0.6495
12375.00000 0.6507
12380.00000 0.6518
12385.00000 0.652
12390.00000 0.6534
12395.00000 0.6526
12400.00000 0.6532
12405.00000 0.6525
12410.00000 0.6512
12415.00000 0.6509
12420.00000 0.6494
12425.00000 0.6486
12430.00000 0.6474
12435.00000 0.6459
12440.00000 0.6459
12445.00000 0.6462
12450.00000 0.6468
12455.00000 0.6472
12460.00000 0.648
12465.00000 0.6488
12470.00000 0.6485
12475.00000 0.6504
12480.00000 0.6508
12485.00000 0.6521
12490.00000 0.6518
12495.00000 0.6516
12500.00000 0.6532
12505.00000 0.6537
12510.00000 0.6536
12515.00000 0.6553
12520.00000 0.6559
12525.00000 0.6573
12530.00000 0.6568
12535.00000 0.6568
12540.00000 0.6573
12545.00000 0.6588
12550.00000 0.6594
12555.00000 0.6603
12560.00000 0.6602
12565.00000 0.6606
12570.00000 0.6599
12575.00000 0.6588
12580.00000 0.6586
12585.00000 0.6561
12590.00000 0.6527
12595.00000 0.65
12600.00000 0.6463
12605.00000 0.6427
12610.00000 0.6397
12615.00000 0.6355
12620.00000 0.631
12625.00000 0.6281
12630.00000 0.6246
12635.00000 0.6229
12640.00000 0.6199
12645.00000 0.6176
12650.00000 0.6166
12655.00000 0.6143
12660.00000 0.6123
12665.00000 0.611
12670.00000 0.6092
12675.00000 0.6077
12680.00000 0.6071
12685.00000 0.6062
12690.00000 0.6065
12695.00000 0.6078
12700.00000 0.6077
12705.00000 0.6107
12710.00000 0.6118
12715.00000 0.6133
12720.00000 0.6174
12725.00000 0.6192
12730.00000 0.6217
12735.00000 0.6247
12740.00000 0.628
12745.00000 0.6309
12750.00000 0.6334
12755.00000 0.6356
12760.00000 0.6391
12765.00000 0.6419
12770.00000 0.6444
12775.00000 0.6481
12780.00000 0.6499
12785.00000 0.6518
12790.00000 0.6545
12795.00000 0.655
12800.00000 0.6567
12805.00000 0.6574
12810.00000 0.6577
12815.00000 0.6584
12820.00000 0.6583
12825.00000 0.6568
12830.00000 0.6559
12835.00000 0.6546
12840.00000 0.6531
12845.00000 0.6521
12850.00000 0.6501
12855.00000 0.6489
12860.00000 0.6477
12865.00000 0.6469
12870.00000 0.6471
12875.00000 0.647
12880.00000 0.6458
12885.00000 0.6461
12890.00000 0.6466
12895.00000 0.6454
12900.00000 0.6453
12905.00000 0.6452
12910.00000 0.6457
12915.00000 0.6474
12920.00000 0.6472
12925.00000 0.6471
12930.00000 0.6477
12935.00000 0.6469
12940.00000 0.6484
12945.00000 0.6469
12950.00000 0.6469
12955.00000 0.6473
12960.00000 0.6469
12965.00000 0.6473
12970.00000 0.6502
12975.00000 0.6503
12980.00000 0.6519
12985.00000 0.6526
12990.00000 0.6522
12995.00000 0.6535
13000.00000 0.654
13005.00000 0.654
13010.00000 0.6555
13015.00000 0.6558
13020.00000 0.6565
13025.00000 0.6558
13030.00000 0.6563
13035.00000 0.6571
13040.00000 0.6571
13045.00000 0.657
13050.00000 0.6579
13055.00000 0.6578
13060.00000 0.6581
13065.00000 0.6591
13070.00000 0.6588
13075.00000 0.6588
13080.00000 0.6589
13085.00000 0.6595
13090.00000 0.6595
13095.00000 0.6607
13100.00000 0.6601
13105.00000 0.6603
13110.00000 0.6596
13115.00000 0.6586
13120.00000 0.6591
13125.00000 0.6575
13130.00000 0.6563
13135.00000 0.6546
13140.00000 0.6539
13145.00000 0.6528
13150.00000 0.6518
13155.00000 0.65
13160.00000 0.6484
13165.00000 0.6487
13170.00000 0.6483
13175.00000 0.6494
13180.00000 0.6488
13185.00000 0.6497
13190.00000 0.6513
13195.00000 0.6525
13200.00000 0.6539
13205.00000 0.655
13210.00000 0.6553
13215.00000 0.6574
13220.00000 0.6586
13225.00000 0.659
13230.00000 0.6604
13235.00000 0.6608
13240.00000 0.6619
13245.00000 0.6632
13250.00000 0.6645
13255.00000 0.6651
13260.00000 0.6648
13265.00000 0.666
13270.00000 0.6668
13275.00000 0.6667
13280.00000 0.6663
13285.00000 0.6648
13290.00000 0.6633
13295.00000 0.662
13300.00000 0.6601
13305.00000 0.6585
13310.00000 0.6565
13315.00000 0.6551
13320.00000 0.6535
13325.00000 0.6512
13330.00000 0.6488
13335.00000 0.6461
13340.00000 0.6441
13345.00000 0.6409
13350.00000 0.638
13355.00000 0.6363
13360.00000 0.6335
13365.00000 0.6324
13370.00000 0.6313
13375.00000 0.6305
13380.00000 0.6305
13385.00000 0.6311
13390.00000 0.631
13395.00000 0.6324
13400.00000 0.6337
13405.00000 0.6353
13410.00000 0.6367
13415.00000 0.638
13420.00000 0.6407
13425.00000 0.6437
13430.00000 0.6466
13435.00000 0.6502
13440.00000 0.653
13445.00000 0.6544
13450.00000 0.6584
13455.00000 0.6607
13460.00000 0.6627
13465.00000 0.6649
13470.00000 0.6669
13475.00000 0.669
13480.00000 0.6709
13485.00000 0.6728
13490.00000 0.6759
13495.00000 0.6785
13500.00000 0.6793
13505.00000 0.6818
13510.00000 0.6835
13515.00000 0.6854
13520.00000 0.6868
13525.00000 0.6853
13530.00000 0.6847
13535.00000 0.6847
13540.00000 0.682
13545.00000 0.6802
13550.00000 0.6816
13555.00000 0.6787
13560.00000 0.6795
13565.00000 0.6782
13570.00000 0.6773
13575.00000 0.6786
13580.00000 0.6778
13585.00000 0.677
13590.00000 0.678
13595.00000 0.6783
13600.00000 0.6787
13605.00000 0.6746
13610.00000 0.679
13615.00000 0.6789
13620.00000 0.6805
13625.00000 0.6795
13630.00000 0.6823
13635.00000 0.6826
13640.00000 0.679
13645.00000 0.6817
13650.00000 0.6773
13655.00000 0.6808
13660.00000 0.6805
13665.00000 0.6802
13670.00000 0.6797
13675.00000 0.6762
13680.00000 0.6775
13685.00000 0.6754
13690.00000 0.6765
13695.00000 0.6733
13700.00000 0.6748
13705.00000 0.6671
13710.00000 0.6665
13715.00000 0.6654
13720.00000 0.6602
13725.00000 0.6614
13730.00000 0.6633
13735.00000 0.6618
13740.00000 0.6619
13745.00000 0.661
13750.00000 0.6624
13755.00000 0.6639
13760.00000 0.6632
13765.00000 0.6624
13770.00000 0.6623
13775.00000 0.6623
13780.00000 0.6643
13785.00000 0.6612
13790.00000 0.6619
13795.00000 0.6624
13800.00000 0.6584
13805.00000 0.6579
13810.00000 0.6644
13815.00000 0.6676
13820.00000 0.6667
13825.00000 0.6647
13830.00000 0.6723
13835.00000 0.6682
13840.00000 0.678
13845.00000 0.6771
13850.00000 0.6775
13855.00000 0.6784
13860.00000 0.6792
13865.00000 0.6816
13870.00000 0.6826
13875.00000 0.6836
13880.00000 0.6804
13885.00000 0.6842
13890.00000 0.6852
13895.00000 0.6862
13900.00000 0.6862
13905.00000 0.6866
13910.00000 0.6877
13915.00000 0.6875
13920.00000 0.6837
13925.00000 0.6891
13930.00000 0.6903
13935.00000 0.6931
13940.00000 0.6943
13945.00000 0.6932
13950.00000 0.6944
13955.00000 0.6951
13960.00000 0.6911
13965.00000 0.697
13970.00000 0.6975
13975.00000 0.6989
13980.00000 0.6994
13985.00000 0.7012
13990.00000 0.7002
13995.00000 0.7026
14000.00000 0.7033
14005.00000 0.706
14010.00000 0.7054
14015.00000 0.7092
14020.00000 0.7108
14025.00000 0.7113
14030.00000 0.7131
14035.00000 0.714
14040.00000 0.7151
14045.00000 0.7126
14050.00000 0.7148
14055.00000 0.7149
14060.00000 0.7151
14065.00000 0.7128
14070.00000 0.7121
14075.00000 0.7107
14080.00000 0.7097
14085.00000 0.7098
14090.00000 0.7069
14095.00000 0.7087
14100.00000 0.7066
14105.00000 0.706
14110.00000 0.7057
14115.00000 0.7054
14120.00000 0.7044
14125.00000 0.7048
14130.00000 0.7029
14135.00000 0.7017
14140.00000 0.6982
14145.00000 0.6977
14150.00000 0.6971
14155.00000 0.6963
14160.00000 0.6945
14165.00000 0.6961
14170.00000 0.695
14175.00000 0.696
14180.00000 0.6961
14185.00000 0.6949
14190.00000 0.6941
14195.00000 0.6942
14200.00000 0.6942
14205.00000 0.6948
14210.00000 0.6948
14215.00000 0.6952
14220.00000 0.6954
14225.00000 0.6967
14230.00000 0.6969
14235.00000 0.6973
14240.00000 0.6985
14245.00000 0.6991
14250.00000 0.7008
14255.00000 0.7018
14260.00000 0.7037
14265.00000 0.7056
14270.00000 0.7073
14275.00000 0.7083
14280.00000 0.7109
14285.00000 0.7102
14290.00000 0.7127
14295.00000 0.7137
14300.00000 0.7142
14305.00000 0.7134
14310.00000 0.7123
14315.00000 0.7124
14320.00000 0.7113
14325.00000 0.7122
14330.00000 0.7126
14335.00000 0.7131
14340.00000 0.7138
14345.00000 0.7135
14350.00000 0.7125
14355.00000 0.713
14360.00000 0.7143
14365.00000 0.7151
14370.00000 0.7158
14375.00000 0.7169
14380.00000 0.7177
14385.00000 0.7179
14390.00000 0.7185
14395.00000 0.717
14400.00000 0.7179
14405.00000 0.7175
14410.00000 0.7176
14415.00000 0.7167
14420.00000 0.7168
14425.00000 0.7176
14430.00000 0.7188
14435.00000 0.7184
14440.00000 0.7204
14445.00000 0.7217
14450.00000 0.7202
14455.00000 0.7181
14460.00000 0.72
14465.00000 0.7206
14470.00000 0.7212
14475.00000 0.7222
14480.00000 0.7223
14485.00000 0.7221
14490.00000 0.7203
14495.00000 0.7189
14500.00000 0.7176
14505.00000 0.717
14510.00000 0.7156
14515.00000 0.7147
14520.00000 0.7144
14525.00000 0.7133
14530.00000 0.7139
14535.00000 0.7133
14540.00000 0.7134
14545.00000 0.713
14550.00000 0.7147
14555.00000 0.7155
14560.00000 0.717
14565.00000 0.7174
14570.00000 0.7175
14575.00000 0.7175
14580.00000 0.7169
14585.00000 0.7176
14590.00000 0.7165
14595.00000 0.7174
14600.00000 0.7166
14605.00000 0.7183
14610.00000 0.721
14615.00000 0.7228
14620.00000 0.7263
14625.00000 0.7287
14630.00000 0.7318
14635.00000 0.7341
14640.00000 0.7374
14645.00000 0.7383
14650.00000 0.7392
14655.00000 0.7398
14660.00000 0.741
14665.00000 0.7404
14670.00000 0.7399
14675.00000 0.7388
14680.00000 0.7378
14685.00000 0.7396
14690.00000 0.739
14695.00000 0.7387
14700.00000 0.7389
14705.00000 0.7385
14710.00000 0.7387
14715.00000 0.7397
14720.00000 0.7389
14725.00000 0.7381
14730.00000 0.7376
14735.00000 0.7363
14740.00000 0.7364
14745.00000 0.7352
14750.00000 0.7336
14755.00000 0.7326
14760.00000 0.732
14765.00000 0.7301
14770.00000 0.7285
14775.00000 0.7271
14780.00000 0.7246
14785.00000 0.7249
14790.00000 0.7268
14795.00000 0.7276
14800.00000 0.7283
14805.00000 0.729
14810.00000 0.7306
14815.00000 0.7313
14820.00000 0.7321
14825.00000 0.7331
14830.00000 0.7358
14835.00000 0.7379
14840.00000 0.7405
14845.00000 0.7413
14850.00000 0.7408
14855.00000 0.7418
14860.00000 0.7418
14865.00000 0.7424
14870.00000 0.742
14875.00000 0.7416
14880.00000 0.7409
14885.00000 0.7407
14890.00000 0.7417
14895.00000 0.7411
14900.00000 0.7415
14905.00000 0.7402
14910.00000 0.7402
14915.00000 0.7391
14920.00000 0.7382
14925.00000 0.7381
14930.00000 0.7361
14935.00000 0.7365
14940.00000 0.7353
14945.00000 0.7343
14950.00000 0.7339
14955.00000 0.7324
14960.00000 0.7313
14965.00000 0.7291
14970.00000 0.7265
14975.00000 0.7252
14980.00000 0.7234
14985.00000 0.7217
14990.00000 0.7179
14995.00000 0.7153
15000.00000 0.712
15005.00000 0.7136
15010.00000 0.7139
15015.00000 0.7155
15020.00000 0.7175
15025.00000 0.719
15030.00000 0.7219
15035.00000 0.7248
15040.00000 0.7263
15045.00000 0.7289
15050.00000 0.7302
15055.00000 0.7329
15060.00000 0.735
15065.00000 0.7362
15070.00000 0.7381
15075.00000 0.7403
15080.00000 0.7416
15085.00000 0.7432
15090.00000 0.7446
15095.00000 0.7452
15100.00000 0.7478
15105.00000 0.7488
15110.00000 0.7504
15115.00000 0.7519
15120.00000 0.753
15125.00000 0.7544
15130.00000 0.7559
15135.00000 0.7566
15140.00000 0.7575
15145.00000 0.7593
15150.00000 0.7579
15155.00000 0.7587
15160.00000 0.7596
15165.00000 0.7587
15170.00000 0.7582
15175.00000 0.7576
15180.00000 0.7566
15185.00000 0.7569
15190.00000 0.7562
15195.00000 0.7562
15200.00000 0.756
15205.00000 0.756
15210.00000 0.7551
15215.00000 0.7547
15220.00000 0.7543
15225.00000 0.7537
15230.00000 0.7539
15235.00000 0.7528
15240.00000 0.7532
15245.00000 0.7513
15250.00000 0.748
15255.00000 0.7466
15260.00000 0.7445
15265.00000 0.7436
15270.00000 0.7424
15275.00000 0.7413
15280.00000 0.741
15285.00000 0.7423
15290.00000 0.7442
15295.00000 0.7455
15300.00000 0.7461
15305.00000 0.7473
15310.00000 0.7482
15315.00000 0.7484
15320.00000 0.75
15325.00000 0.7489
15330.00000 0.7491
15335.00000 0.7479
15340.00000 0.7475
15345.00000 0.7462
15350.00000 0.7455
15355.00000 0.7441
15360.00000 0.7436
15365.00000 0.7438
15370.00000 0.7427
15375.00000 0.7423
15380.00000 0.742
15385.00000 0.7412
15390.00000 0.7411
15395.00000 0.7408
15400.00000 0.7391
15405.00000 0.7392
15410.00000 0.7366
15415.00000 0.7352
15420.00000 0.7335
15425.00000 0.7336
15430.00000 0.7343
15435.00000 0.7344
15440.00000 0.734
15445.00000 0.7343
15450.00000 0.7343
15455.00000 0.735
15460.00000 0.736
15465.00000 0.7354
15470.00000 0.7355
15475.00000 0.7364
15480.00000 0.7367
15485.00000 0.7396
15490.00000 0.7433
15495.00000 0.7457
15500.00000 0.7499
15505.00000 0.7494
15510.00000 0.7491
15515.00000 0.7484
15520.00000 0.7483
15525.00000 0.7488
15530.00000 0.748
15535.00000 0.7478
15540.00000 0.7472
15545.00000 0.7498
15550.00000 0.7527
15555.00000 0.755
15560.00000 0.7575
15565.00000 0.7588
15570.00000 0.759
15575.00000 0.7594
15580.00000 0.7605
15585.00000 0.7613
15590.00000 0.7612
15595.00000 0.7613
15600.00000 0.7619
15605.00000 0.7609
15610.00000 0.7624
15615.00000 0.7632
15620.00000 0.7627
15625.00000 0.7634
15630.00000 0.7633
15635.00000 0.7627
15640.00000 0.7629
15645.00000 0.7618
15650.00000 0.7621
15655.00000 0.762
15660.00000 0.7609
15665.00000 0.7605
15670.00000 0.7585
15675.00000 0.7593
15680.00000 0.7577
15685.00000 0.7577
15690.00000 0.7581
15695.00000 0.7587
15700.00000 0.7598
15705.00000 0.7602
15710.00000 0.761
15715.00000 0.7622
15720.00000 0.7629
15725.00000 0.7643
15730.00000 0.7671
15735.00000 0.7688
15740.00000 0.7712
15745.00000 0.7696
15750.00000 0.7683
15755.00000 0.7671
15760.00000 0.7653
15765.00000 0.7666
15770.00000 0.768
15775.00000 0.7683
15780.00000 0.7683
15785.00000 0.7704
15790.00000 0.7736
15795.00000 0.7764
15800.00000 0.7789
15805.00000 0.7803
15810.00000 0.7818
15815.00000 0.7833
15820.00000 0.7856
15825.00000 0.7858
15830.00000 0.7877
15835.00000 0.7878
15840.00000 0.7896
15845.00000 0.7894
15850.00000 0.788
15855.00000 0.7862
15860.00000 0.7854
15865.00000 0.784
15870.00000 0.783
15875.00000 0.781
15880.00000 0.7795
15885.00000 0.7794
15890.00000 0.7778
15895.00000 0.7785
15900.00000 0.7785
15905.00000 0.7774
15910.00000 0.776
15915.00000 0.7747
15920.00000 0.7739
15925.00000 0.7754
15930.00000 0.7762
15935.00000 0.7773
15940.00000 0.7784
15945.00000 0.7756
15950.00000 0.7722
15955.00000 0.77
15960.00000 0.7673
15965.00000 0.764
15970.00000 0.7622
15975.00000 0.7603
15980.00000 0.7585
15985.00000 0.7584
15990.00000 0.757
15995.00000 0.7561
16000.00000 0.7562
16005.00000 0.7564
16010.00000 0.7569
16015.00000 0.7566
16020.00000 0.7561
16025.00000 0.7577
16030.00000 0.7575
16035.00000 0.7583
16040.00000 0.7592
16045.00000 0.7588
16050.00000 0.7606
16055.00000 0.7605
16060.00000 0.7612
16065.00000 0.7627
16070.00000 0.763
16075.00000 0.7627
16080.00000 0.7637
16085.00000 0.7641
16090.00000 0.7647
16095.00000 0.7651
16100.00000 0.7654
16105.00000 0.7669
16110.00000 0.7673
16115.00000 0.7678
16120.00000 0.7698
16125.00000 0.7686
16130.00000 0.7679
16135.00000 0.7674
16140.00000 0.7653
16145.00000 0.7639
16150.00000 0.7628
16155.00000 0.7606
16160.00000 0.7588
16165.00000 0.7577
16170.00000 0.7567
16175.00000 0.7554
16180.00000 0.7534
16185.00000 0.7514
16190.00000 0.7497
16195.00000 0.7468
16200.00000 0.7447
16205.00000 0.7426
16210.00000 0.74
16215.00000 0.7382
16220.00000 0.7367
16225.00000 0.7344
16230.00000 0.7335
16235.00000 0.7315
16240.00000 0.7297
16245.00000 0.7301
16250.00000 0.7288
16255.00000 0.7277
16260.00000 0.7276
16265.00000 0.7283
16270.00000 0.7299
16275.00000 0.7313
16280.00000 0.7317
16285.00000 0.7362
16290.00000 0.7402
16295.00000 0.7426
16300.00000 0.748
16305.00000 0.7464
16310.00000 0.7454
16315.00000 0.7447
16320.00000 0.7431
16325.00000 0.7438
16330.00000 0.7433
16335.00000 0.7425
16340.00000 0.7428
16345.00000 0.744
16350.00000 0.7441
16355.00000 0.7463
16360.00000 0.7464
16365.00000 0.7463
16370.00000 0.7485
16375.00000 0.7486
16380.00000 0.7497
16385.00000 0.7498
16390.00000 0.7492
16395.00000 0.7506
16400.00000 0.7504
16405.00000 0.7494
16410.00000 0.7493
16415.00000 0.748
16420.00000 0.7465
16425.00000 0.7478
16430.00000 0.7468
16435.00000 0.7464
16440.00000 0.7467
16445.00000 0.7453
16450.00000 0.7434
16455.00000 0.7422
16460.00000 0.7401
16465.00000 0.7395
16470.00000 0.7375
16475.00000 0.7354
16480.00000 0.7343
16485.00000 0.7313
16490.00000 0.7287
16495.00000 0.7269
16500.00000 0.7237
16505.00000 0.7216
16510.00000 0.7181
16515.00000 0.7156
16520.00000 0.7138
16525.00000 0.7111
16530.00000 0.7089
16535.00000 0.7072
16540.00000 0.7058
16545.00000 0.7063
16550.00000 0.7068
16555.00000 0.7064
16560.00000 0.7065
16565.00000 0.7053
16570.00000 0.7035
16575.00000 0.7026
16580.00000 0.7011
16585.00000 0.6989
16590.00000 0.697
16595.00000 0.695
16600.00000 0.6929
16605.00000 0.6949
16610.00000 0.6953
16615.00000 0.6969
16620.00000 0.6984
16625.00000 0.7009
16630.00000 0.7035
16635.00000 0.7055
16640.00000 0.7085
16645.00000 0.7102
16650.00000 0.7117
16655.00000 0.7139
16660.00000 0.7152
16665.00000 0.7156
16670.00000 0.7167
16675.00000 0.7167
16680.00000 0.7174
16685.00000 0.7182
16690.00000 0.7168
16695.00000 0.718
16700.00000 0.7188
16705.00000 0.7184
16710.00000 0.7198
16715.00000 0.7197
16720.00000 0.7191
16725.00000 0.7217
16730.00000 0.7222
16735.00000 0.7228
16740.00000 0.724
16745.00000 0.7249
16750.00000 0.7255
16755.00000 0.7267
16760.00000 0.7269
16765.00000 0.7269
16770.00000 0.7281
16775.00000 0.7269
16780.00000 0.7274
16785.00000 0.727
16790.00000 0.7267
16795.00000 0.726
16800.00000 0.7267
16805.00000 0.7255
16810.00000 0.7254
16815.00000 0.7246
16820.00000 0.7234
16825.00000 0.7229
16830.00000 0.7212
16835.00000 0.7192
16840.00000 0.7179
16845.00000 0.7175
16850.00000 0.7156
16855.00000 0.7136
16860.00000 0.7128
16865.00000 0.7134
16870.00000 0.7127
16875.00000 0.713
16880.00000 0.7124
16885.00000 0.7141
16890.00000 0.7157
16895.00000 0.7173
16900.00000 0.7192
16905.00000 0.7176
16910.00000 0.7158
16915.00000 0.7144
16920.00000 0.7132
16925.00000 0.7096
16930.00000 0.7087
16935.00000 0.7064
16940.00000 0.7045
16945.00000 0.7039
16950.00000 0.7044
16955.00000 0.703
16960.00000 0.7038
16965.00000 0.7034
16970.00000 0.7021
16975.00000 0.7021
16980.00000 0.7019
16985.00000 0.6999
16990.00000 0.6992
16995.00000 0.698
17000.00000 0.6961
17005.00000 0.695
17010.00000 0.6944
17015.00000 0.6922
17020.00000 0.6908
17025.00000 0.6894
17030.00000 0.6879
17035.00000 0.6866
17040.00000 0.6849
17045.00000 0.6834
17050.00000 0.6811
17055.00000 0.68
17060.00000 0.6776
17065.00000 0.6737
17070.00000 0.6705
17075.00000 0.6662
17080.00000 0.6616
17085.00000 0.6604
17090.00000 0.6565
17095.00000 0.6547
17100.00000 0.6521
17105.00000 0.6511
17110.00000 0.6508
17115.00000 0.6503
17120.00000 0.6497
17125.00000 0.6494
17130.00000 0.6479
17135.00000 0.6469
17140.00000 0.6472
17145.00000 0.6469
17150.00000 0.6471
17155.00000 0.6473
17160.00000 0.6485
17165.00000 0.648
17170.00000 0.6485
17175.00000 0.6491
17180.00000 0.6502
17185.00000 0.6501
17190.00000 0.6503
17195.00000 0.6514
17200.00000 0.6509
17205.00000 0.6516
17210.00000 0.6517
17215.00000 0.6512
17220.00000 0.6522
17225.00000 0.6526
17230.00000 0.6535
17235.00000 0.6545
17240.00000 0.6547
17245.00000 0.6564
17250.00000 0.6591
17255.00000 0.6608
17260.00000 0.6619
17265.00000 0.6633
17270.00000 0.6644
17275.00000 0.6653
17280.00000 0.6664
17285.00000 0.6667
17290.00000 0.6667
17295.00000 0.6673
17300.00000 0.6679
17305.00000 0.6669
17310.00000 0.6663
17315.00000 0.6647
17320.00000 0.664
17325.00000 0.663
17330.00000 0.6623
17335.00000 0.6618
17340.00000 0.6602
17345.00000 0.6591
17350.00000 0.6575
17355.00000 0.6566
17360.00000 0.6559
17365.00000 0.6539
17370.00000 0.6538
17375.00000 0.6532
17380.00000 0.6526
17385.00000 0.6513
17390.00000 0.651
17395.00000 0.6504
17400.00000 0.6502
17405.00000 0.6485
17410.00000 0.6477
17415.00000 0.6464
17420.00000 0.6451
17425.00000 0.6445
17430.00000 0.6441
17435.00000 0.6431
17440.00000 0.6413
17445.00000 0.6399
17450.00000 0.6372
17455.00000 0.6352
17460.00000 0.6329
17465.00000 0.6317
17470.00000 0.6317
17475.00000 0.6298
17480.00000 0.6283
17485.00000 0.6297
17490.00000 0.6304
17495.00000 0.6315
17500.00000 0.633
17505.00000 0.6317
17510.00000 0.6311
17515.00000 0.6305
17520.00000 0.6295
17525.00000 0.6299
17530.00000 0.6293
17535.00000 0.6292
17540.00000 0.6294
17545.00000 0.6308
17550.00000 0.6317
17555.00000 0.633
17560.00000 0.6337
17565.00000 0.6348
17570.00000 0.6359
17575.00000 0.6369
17580.00000 0.6385
17585.00000 0.639
17590.00000 0.6403
17595.00000 0.642
17600.00000 0.6435
17605.00000 0.6435
17610.00000 0.6441
17615.00000 0.644
17620.00000 0.6441
17625.00000 0.6437
17630.00000 0.6447
17635.00000 0.6453
17640.00000 0.6445
17645.00000 0.6465
17650.00000 0.6495
17655.00000 0.6508
17660.00000 0.6533
17665.00000 0.6528
17670.00000 0.6514
17675.00000 0.6511
17680.00000 0.6503
17685.00000 0.6486
17690.00000 0.6474
17695.00000 0.6456
17700.00000 0.6436
17705.00000 0.642
17710.00000 0.6408
17715.00000 0.6397
17720.00000 0.6381
17725.00000 0.6364
17730.00000 0.6356
17735.00000 0.6324
17740.00000 0.6303
17745.00000 0.6297
17750.00000 0.6278
17755.00000 0.626
17760.00000 0.6251
17765.00000 0.6221
17770.00000 0.6195
17775.00000 0.6172
17780.00000 0.6139
17785.00000 0.6103
17790.00000 0.6062
17795.00000 0.6032
17800.00000 0.5991
17805.00000 0.5948
17810.00000 0.5917
17815.00000 0.5877
17820.00000 0.5842
17825.00000 0.5815
17830.00000 0.579
17835.00000 0.5751
17840.00000 0.5727
17845.00000 0.5689
17850.00000 0.5659
17855.00000 0.5623
17860.00000 0.5596
17865.00000 0.5564
17870.00000 0.5531
17875.00000 0.5509
17880.00000 0.5485
17885.00000 0.5453
17890.00000 0.5434
17895.00000 0.5416
17900.00000 0.5396
17905.00000 0.5377
17910.00000 0.5366
17915.00000 0.5351
17920.00000 0.5343
17925.00000 0.5347
17930.00000 0.5347
17935.00000 0.5353
17940.00000 0.5363
17945.00000 0.5384
17950.00000 0.5403
17955.00000 0.5422
17960.00000 0.5441
17965.00000 0.5453
17970.00000 0.5462
17975.00000 0.5464
17980.00000 0.5466
17985.00000 0.5444
17990.00000 0.5422
17995.00000 0.5381
18000.00000 0.5332
18005.00000 0.5259
18010.00000 0.5176
18015.00000 0.508
18020.00000 0.495
18025.00000 0.481
18030.00000 0.4644
18035.00000 0.4466
18040.00000 0.4271
18045.00000 0.4062
18050.00000 0.3844
18055.00000 0.3603
18060.00000 0.3341
18065.00000 0.3108
18070.00000 0.2857
18075.00000 0.2629
18080.00000 0.2417
18085.00000 0.2198
18090.00000 0.1992
18095.00000 0.1811
18100.00000 0.1634
18105.00000 0.1476
18110.00000 0.1335
18115.00000 0.1211
18120.00000 0.1091
18125.00000 0.0971
18130.00000 0.0875
18135.00000 0.0787
18140.00000 0.071
18145.00000 0.0643
18150.00000 0.0576
18155.00000 0.0513
18160.00000 0.0464
18165.00000 0.042
18170.00000 0.0382
18175.00000 0.0347
18180.00000 0.0312
18185.00000 0.0281
18190.00000 0.0257
18195.00000 0.0238
18200.00000 0.0211
18205.00000 0.0193
18210.00000 0.0175
18215.00000 0.016
18220.00000 0.0145
18225.00000 0.0133
18230.00000 0.0125
18235.00000 0.0112
18240.00000 0.0105
18245.00000 0.0094
18250.00000 0.0088
18255.00000 0.0082
18260.00000 0.0073
18265.00000 0.0068
18270.00000 0.0064
18275.00000 0.006
18280.00000 0.0055
18285.00000 0.0051
18290.00000 0.0044
18295.00000 0.0044
18300.00000 0.004
18305.00000 0.004
20135.50000 0.0
