# %ECSV 0.9
# ---
# datatype:
# - {name: wavelength, unit: Angstrom, datatype: float32}
# - {name: response, datatype: float32}
# meta: !!omap
# - {band_name: z}
# - {group_name: GMOS_S}
wavelength response
7331.39990 0.0
8146.00000 0.004
8148.00000 0.004
8150.00000 0.004
8152.00000 0.004
8154.00000 0.004
8156.00000 0.004
8158.00000 0.004
8160.00000 0.004
8162.00000 0.004
8164.00000 0.004
8166.00000 0.005
8168.00000 0.005
8170.00000 0.005
8172.00000 0.005
8174.00000 0.005
8176.00000 0.005
8178.00000 0.005
8180.00000 0.005
8182.00000 0.006
8184.00000 0.006
8186.00000 0.006
8188.00000 0.006
8190.00000 0.006
8192.00000 0.006
8194.00000 0.007
8196.00000 0.007
8198.00000 0.007
8200.00000 0.007
8202.00000 0.007
8204.00000 0.007
8206.00000 0.008
8208.00000 0.008
8210.00000 0.008
8212.00000 0.008
8214.00000 0.009
8216.00000 0.009
8218.00000 0.009
8220.00000 0.009
8222.00000 0.009
8224.00000 0.01
8226.00000 0.01
8228.00000 0.01
8230.00000 0.011
8232.00000 0.011
8234.00000 0.011
8236.00000 0.011
8238.00000 0.012
8240.00000 0.012
8242.00000 0.013
8244.00000 0.013
8246.00000 0.013
8248.00000 0.014
8250.00000 0.014
8252.00000 0.014
8254.00000 0.015
8256.00000 0.015
8258.00000 0.016
8260.00000 0.016
8262.00000 0.017
8264.00000 0.018
8266.00000 0.018
8268.00000 0.019
8270.00000 0.019
8272.00000 0.02
8274.00000 0.02
8276.00000 0.021
8278.00000 0.021
8280.00000 0.022
8282.00000 0.023
8284.00000 0.024
8286.00000 0.025
8288.00000 0.025
8290.00000 0.026
8292.00000 0.027
8294.00000 0.028
8296.00000 0.029
8298.00000 0.03
8300.00000 0.031
8302.00000 0.032
8304.00000 0.033
8306.00000 0.034
8308.00000 0.035
8310.00000 0.036
8312.00000 0.037
8314.00000 0.039
8316.00000 0.04
8318.00000 0.041
8320.00000 0.043
8322.00000 0.044
8324.00000 0.046
8326.00000 0.047
8328.00000 0.049
8330.00000 0.051
8332.00000 0.052
8334.00000 0.054
8336.00000 0.056
8338.00000 0.058
8340.00000 0.06
8342.00000 0.062
8344.00000 0.064
8346.00000 0.067
8348.00000 0.069
8350.00000 0.072
8352.00000 0.074
8354.00000 0.077
8356.00000 0.08
8358.00000 0.083
8360.00000 0.085
8362.00000 0.088
8364.00000 0.091
8366.00000 0.095
8368.00000 0.099
8370.00000 0.102
8372.00000 0.106
8374.00000 0.109
8376.00000 0.114
8378.00000 0.118
8380.00000 0.122
8382.00000 0.126
8384.00000 0.132
8386.00000 0.137
8388.00000 0.142
8390.00000 0.147
8392.00000 0.153
8394.00000 0.158
8396.00000 0.164
8398.00000 0.17
8400.00000 0.176
8402.00000 0.182
8404.00000 0.189
8406.00000 0.196
8408.00000 0.204
8410.00000 0.211
8412.00000 0.218
8414.00000 0.226
8416.00000 0.234
8418.00000 0.243
8420.00000 0.252
8422.00000 0.261
8424.00000 0.271
8426.00000 0.28
8428.00000 0.289
8430.00000 0.3
8432.00000 0.31
8434.00000 0.321
8436.00000 0.332
8438.00000 0.343
8440.00000 0.354
8442.00000 0.366
8444.00000 0.378
8446.00000 0.391
8448.00000 0.403
8450.00000 0.416
8452.00000 0.428
8454.00000 0.441
8456.00000 0.455
8458.00000 0.471
8460.00000 0.484
8462.00000 0.498
8464.00000 0.512
8466.00000 0.526
8468.00000 0.54
8470.00000 0.555
8472.00000 0.569
8474.00000 0.584
8476.00000 0.599
8478.00000 0.612
8480.00000 0.626
8482.00000 0.642
8484.00000 0.657
8486.00000 0.671
8488.00000 0.683
8490.00000 0.698
8492.00000 0.711
8494.00000 0.725
8496.00000 0.738
8498.00000 0.752
8500.00000 0.729
8502.00000 0.736
8504.00000 0.744
8506.00000 0.751
8508.00000 0.759
8510.00000 0.766
8512.00000 0.772
8514.00000 0.778
8516.00000 0.787
8518.00000 0.793
8520.00000 0.8
8522.00000 0.806
8524.00000 0.813
8526.00000 0.819
8528.00000 0.825
8530.00000 0.831
8532.00000 0.837
8534.00000 0.842
8536.00000 0.848
8538.00000 0.853
8540.00000 0.859
8542.00000 0.863
8544.00000 0.869
8546.00000 0.873
8548.00000 0.878
8550.00000 0.883
8552.00000 0.887
8554.00000 0.892
8556.00000 0.895
8558.00000 0.899
8560.00000 0.903
8562.00000 0.907
8564.00000 0.91
8566.00000 0.914
8568.00000 0.916
8570.00000 0.919
8572.00000 0.923
8574.00000 0.925
8576.00000 0.928
8578.00000 0.931
8580.00000 0.933
8582.00000 0.935
8584.00000 0.938
8586.00000 0.94
8588.00000 0.942
8590.00000 0.943
8592.00000 0.945
8594.00000 0.947
8596.00000 0.948
8598.00000 0.949
8600.00000 0.951
8602.00000 0.952
8604.00000 0.953
8606.00000 0.954
8608.00000 0.955
8610.00000 0.956
8612.00000 0.956
8614.00000 0.957
8616.00000 0.958
8618.00000 0.958
8620.00000 0.959
8622.00000 0.959
8624.00000 0.959
8626.00000 0.96
8628.00000 0.96
8630.00000 0.96
8632.00000 0.96
8634.00000 0.96
8636.00000 0.96
8638.00000 0.96
8640.00000 0.96
8642.00000 0.961
8644.00000 0.96
8646.00000 0.96
8648.00000 0.96
8650.00000 0.96
8652.00000 0.96
8654.00000 0.96
8656.00000 0.96
8658.00000 0.959
8660.00000 0.959
8662.00000 0.959
8664.00000 0.959
8666.00000 0.959
8668.00000 0.959
8670.00000 0.958
8672.00000 0.958
8674.00000 0.958
8676.00000 0.958
8678.00000 0.958
8680.00000 0.958
8682.00000 0.958
8684.00000 0.958
8686.00000 0.957
8688.00000 0.958
8690.00000 0.957
8692.00000 0.957
8694.00000 0.957
8696.00000 0.957
8698.00000 0.957
8700.00000 0.957
8702.00000 0.957
8704.00000 0.957
8706.00000 0.957
8708.00000 0.956
8710.00000 0.957
8712.00000 0.957
8714.00000 0.957
8716.00000 0.956
8718.00000 0.957
8720.00000 0.957
8722.00000 0.957
8724.00000 0.957
8726.00000 0.957
8728.00000 0.957
8730.00000 0.957
8732.00000 0.957
8734.00000 0.957
8736.00000 0.957
8738.00000 0.958
8740.00000 0.958
8742.00000 0.958
8744.00000 0.958
8746.00000 0.958
8748.00000 0.958
8750.00000 0.958
8752.00000 0.959
8754.00000 0.959
8756.00000 0.959
8758.00000 0.959
8760.00000 0.96
8762.00000 0.96
8764.00000 0.96
8766.00000 0.96
8768.00000 0.96
8770.00000 0.96
8772.00000 0.961
8774.00000 0.961
8776.00000 0.961
8778.00000 0.962
8780.00000 0.961
8782.00000 0.962
8784.00000 0.962
8786.00000 0.962
8788.00000 0.962
8790.00000 0.962
8792.00000 0.962
8794.00000 0.963
8796.00000 0.963
8798.00000 0.963
8800.00000 0.964
8802.00000 0.964
8804.00000 0.964
8806.00000 0.964
8808.00000 0.964
8810.00000 0.964
8812.00000 0.965
8814.00000 0.965
8816.00000 0.965
8818.00000 0.965
8820.00000 0.965
8822.00000 0.965
8824.00000 0.965
8826.00000 0.966
8828.00000 0.966
8830.00000 0.966
8832.00000 0.966
8834.00000 0.966
8836.00000 0.966
8838.00000 0.967
8840.00000 0.967
8842.00000 0.967
8844.00000 0.967
8846.00000 0.967
8848.00000 0.967
8850.00000 0.968
8852.00000 0.967
8854.00000 0.968
8856.00000 0.968
8858.00000 0.968
8860.00000 0.968
8862.00000 0.968
8864.00000 0.969
8866.00000 0.968
8868.00000 0.968
8870.00000 0.968
8872.00000 0.969
8874.00000 0.969
8876.00000 0.969
8878.00000 0.969
8880.00000 0.969
8882.00000 0.969
8884.00000 0.969
8886.00000 0.969
8888.00000 0.969
8890.00000 0.969
8892.00000 0.969
8894.00000 0.969
8896.00000 0.969
8898.00000 0.969
8900.00000 0.97
8902.00000 0.969
8904.00000 0.97
8906.00000 0.969
8908.00000 0.97
8910.00000 0.97
8912.00000 0.97
8914.00000 0.97
8916.00000 0.97
8918.00000 0.969
8920.00000 0.97
8922.00000 0.97
8924.00000 0.97
8926.00000 0.97
8928.00000 0.97
8930.00000 0.97
8932.00000 0.97
8934.00000 0.97
8936.00000 0.97
8938.00000 0.97
8940.00000 0.97
8942.00000 0.97
8944.00000 0.97
8946.00000 0.97
8948.00000 0.97
8950.00000 0.97
8952.00000 0.97
8954.00000 0.97
8956.00000 0.97
8958.00000 0.97
8960.00000 0.97
8962.00000 0.97
8964.00000 0.97
8966.00000 0.97
8968.00000 0.97
8970.00000 0.97
8972.00000 0.97
8974.00000 0.97
8976.00000 0.97
8978.00000 0.97
8980.00000 0.97
8982.00000 0.97
8984.00000 0.97
8986.00000 0.97
8988.00000 0.97
8990.00000 0.969
8992.00000 0.97
8994.00000 0.969
8996.00000 0.97
8998.00000 0.97
9000.00000 0.97
9002.00000 0.97
9004.00000 0.97
9006.00000 0.97
9008.00000 0.97
9010.00000 0.97
9012.00000 0.97
9014.00000 0.969
9016.00000 0.969
9018.00000 0.97
9020.00000 0.969
9022.00000 0.97
9024.00000 0.97
9026.00000 0.969
9028.00000 0.969
9030.00000 0.969
9032.00000 0.969
9034.00000 0.969
9036.00000 0.97
9038.00000 0.969
9040.00000 0.969
9042.00000 0.969
9044.00000 0.969
9046.00000 0.969
9048.00000 0.969
9050.00000 0.969
9052.00000 0.969
9054.00000 0.969
9056.00000 0.969
9058.00000 0.969
9060.00000 0.969
9062.00000 0.969
9064.00000 0.969
9066.00000 0.969
9068.00000 0.969
9070.00000 0.969
9072.00000 0.969
9074.00000 0.969
9076.00000 0.969
9078.00000 0.969
9080.00000 0.969
9082.00000 0.969
9084.00000 0.969
9086.00000 0.969
9088.00000 0.969
9090.00000 0.969
9092.00000 0.969
9094.00000 0.969
9096.00000 0.969
9098.00000 0.969
9100.00000 0.969
9102.00000 0.969
9104.00000 0.969
9106.00000 0.968
9108.00000 0.969
9110.00000 0.969
9112.00000 0.968
9114.00000 0.969
9116.00000 0.969
9118.00000 0.969
9120.00000 0.969
9122.00000 0.969
9124.00000 0.969
9126.00000 0.969
9128.00000 0.968
9130.00000 0.969
9132.00000 0.969
9134.00000 0.969
9136.00000 0.969
9138.00000 0.969
9140.00000 0.969
9142.00000 0.968
9144.00000 0.968
9146.00000 0.968
9148.00000 0.968
9150.00000 0.968
9152.00000 0.968
9154.00000 0.969
9156.00000 0.969
9158.00000 0.969
9160.00000 0.969
9162.00000 0.969
9164.00000 0.969
9166.00000 0.969
9168.00000 0.969
9170.00000 0.969
9172.00000 0.969
9174.00000 0.968
9176.00000 0.968
9178.00000 0.969
9180.00000 0.969
9182.00000 0.969
9184.00000 0.969
9186.00000 0.969
9188.00000 0.969
9190.00000 0.969
9192.00000 0.969
9194.00000 0.969
9196.00000 0.969
9198.00000 0.969
9200.00000 0.969
9202.00000 0.969
9204.00000 0.969
9206.00000 0.969
9208.00000 0.969
9210.00000 0.969
9212.00000 0.969
9214.00000 0.969
9216.00000 0.969
9218.00000 0.969
9220.00000 0.969
9222.00000 0.969
9224.00000 0.969
9226.00000 0.969
9228.00000 0.969
9230.00000 0.969
9232.00000 0.969
9234.00000 0.969
9236.00000 0.97
9238.00000 0.969
9240.00000 0.97
9242.00000 0.969
9244.00000 0.97
9246.00000 0.969
9248.00000 0.97
9250.00000 0.97
9252.00000 0.97
9254.00000 0.97
9256.00000 0.97
9258.00000 0.97
9260.00000 0.97
9262.00000 0.97
9264.00000 0.97
9266.00000 0.97
9268.00000 0.97
9270.00000 0.97
9272.00000 0.97
9274.00000 0.97
9276.00000 0.97
9278.00000 0.971
9280.00000 0.97
9282.00000 0.971
9284.00000 0.97
9286.00000 0.971
9288.00000 0.97
9290.00000 0.971
9292.00000 0.971
9294.00000 0.971
9296.00000 0.971
9298.00000 0.971
9300.00000 0.971
9302.00000 0.971
9304.00000 0.972
9306.00000 0.971
9308.00000 0.972
9310.00000 0.971
9312.00000 0.972
9314.00000 0.972
9316.00000 0.972
9318.00000 0.972
9320.00000 0.972
9322.00000 0.972
9324.00000 0.972
9326.00000 0.972
9328.00000 0.972
9330.00000 0.972
9332.00000 0.973
9334.00000 0.973
9336.00000 0.973
9338.00000 0.972
9340.00000 0.973
9342.00000 0.973
9344.00000 0.973
9346.00000 0.973
9348.00000 0.973
9350.00000 0.973
9352.00000 0.973
9354.00000 0.973
9356.00000 0.973
9358.00000 0.973
9360.00000 0.973
9362.00000 0.974
9364.00000 0.973
9366.00000 0.973
9368.00000 0.973
9370.00000 0.974
9372.00000 0.974
9374.00000 0.974
9376.00000 0.974
9378.00000 0.974
9380.00000 0.974
9382.00000 0.974
9384.00000 0.974
9386.00000 0.974
9388.00000 0.974
9390.00000 0.974
9392.00000 0.974
9394.00000 0.974
9396.00000 0.975
9398.00000 0.975
9400.00000 0.975
9402.00000 0.974
9404.00000 0.975
9406.00000 0.975
9408.00000 0.975
9410.00000 0.975
9412.00000 0.975
9414.00000 0.975
9416.00000 0.975
9418.00000 0.975
9420.00000 0.975
9422.00000 0.975
9424.00000 0.975
9426.00000 0.975
9428.00000 0.975
9430.00000 0.975
9432.00000 0.975
9434.00000 0.975
9436.00000 0.975
9438.00000 0.975
9440.00000 0.975
9442.00000 0.975
9444.00000 0.975
9446.00000 0.976
9448.00000 0.975
9450.00000 0.975
9452.00000 0.975
9454.00000 0.975
9456.00000 0.975
9458.00000 0.976
9460.00000 0.975
9462.00000 0.976
9464.00000 0.975
9466.00000 0.975
9468.00000 0.976
9470.00000 0.975
9472.00000 0.975
9474.00000 0.976
9476.00000 0.976
9478.00000 0.975
9480.00000 0.975
9482.00000 0.975
9484.00000 0.975
9486.00000 0.975
9488.00000 0.975
9490.00000 0.975
9492.00000 0.975
9494.00000 0.975
9496.00000 0.975
9498.00000 0.975
9500.00000 0.975
9502.00000 0.975
9504.00000 0.975
9506.00000 0.975
9508.00000 0.975
9510.00000 0.975
9512.00000 0.975
9514.00000 0.975
9516.00000 0.975
9518.00000 0.975
9520.00000 0.975
9522.00000 0.975
9524.00000 0.975
9526.00000 0.975
9528.00000 0.975
9530.00000 0.975
9532.00000 0.974
9534.00000 0.975
9536.00000 0.974
9538.00000 0.975
9540.00000 0.974
9542.00000 0.975
9544.00000 0.974
9546.00000 0.974
9548.00000 0.974
9550.00000 0.974
9552.00000 0.974
9554.00000 0.974
9556.00000 0.974
9558.00000 0.973
9560.00000 0.973
9562.00000 0.973
9564.00000 0.973
9566.00000 0.973
9568.00000 0.973
9570.00000 0.973
9572.00000 0.973
9574.00000 0.973
9576.00000 0.973
9578.00000 0.973
9580.00000 0.973
9582.00000 0.972
9584.00000 0.972
9586.00000 0.972
9588.00000 0.972
9590.00000 0.972
9592.00000 0.972
9594.00000 0.972
9596.00000 0.971
9598.00000 0.971
9600.00000 0.971
9602.00000 0.972
9604.00000 0.971
9606.00000 0.971
9608.00000 0.971
9610.00000 0.971
9612.00000 0.97
9614.00000 0.97
9616.00000 0.97
9618.00000 0.971
9620.00000 0.97
9622.00000 0.97
9624.00000 0.97
9626.00000 0.97
9628.00000 0.969
9630.00000 0.97
9632.00000 0.969
9634.00000 0.969
9636.00000 0.969
9638.00000 0.969
9640.00000 0.969
9642.00000 0.969
9644.00000 0.969
9646.00000 0.968
9648.00000 0.968
9650.00000 0.968
9652.00000 0.968
9654.00000 0.968
9656.00000 0.968
9658.00000 0.968
9660.00000 0.968
9662.00000 0.968
9664.00000 0.967
9666.00000 0.967
9668.00000 0.967
9670.00000 0.967
9672.00000 0.967
9674.00000 0.967
9676.00000 0.967
9678.00000 0.967
9680.00000 0.966
9682.00000 0.966
9684.00000 0.966
9686.00000 0.966
9688.00000 0.966
9690.00000 0.966
9692.00000 0.966
9694.00000 0.966
9696.00000 0.966
9698.00000 0.965
9700.00000 0.965
9702.00000 0.965
9704.00000 0.965
9706.00000 0.965
9708.00000 0.965
9710.00000 0.965
9712.00000 0.965
9714.00000 0.965
9716.00000 0.964
9718.00000 0.964
9720.00000 0.964
9722.00000 0.964
9724.00000 0.964
9726.00000 0.964
9728.00000 0.964
9730.00000 0.963
9732.00000 0.963
9734.00000 0.963
9736.00000 0.963
9738.00000 0.963
9740.00000 0.963
9742.00000 0.963
9744.00000 0.963
9746.00000 0.963
9748.00000 0.963
9750.00000 0.962
9752.00000 0.962
9754.00000 0.962
9756.00000 0.962
9758.00000 0.962
9760.00000 0.962
9762.00000 0.962
9764.00000 0.962
9766.00000 0.962
9768.00000 0.962
9770.00000 0.962
9772.00000 0.962
9774.00000 0.962
9776.00000 0.961
9778.00000 0.962
9780.00000 0.961
9782.00000 0.961
9784.00000 0.961
9786.00000 0.962
9788.00000 0.961
9790.00000 0.961
9792.00000 0.961
9794.00000 0.961
9796.00000 0.961
9798.00000 0.961
9800.00000 0.961
9802.00000 0.961
9804.00000 0.961
9806.00000 0.961
9808.00000 0.961
9810.00000 0.961
9812.00000 0.961
9814.00000 0.96
9816.00000 0.961
9818.00000 0.961
9820.00000 0.961
9822.00000 0.96
9824.00000 0.961
9826.00000 0.961
9828.00000 0.961
9830.00000 0.96
9832.00000 0.961
9834.00000 0.96
9836.00000 0.961
9838.00000 0.96
9840.00000 0.96
9842.00000 0.961
9844.00000 0.961
9846.00000 0.961
9848.00000 0.961
9850.00000 0.961
9852.00000 0.96
9854.00000 0.961
9856.00000 0.96
9858.00000 0.961
9860.00000 0.96
9862.00000 0.961
9864.00000 0.961
9866.00000 0.961
9868.00000 0.961
9870.00000 0.961
9872.00000 0.961
9874.00000 0.961
9876.00000 0.961
9878.00000 0.961
9880.00000 0.961
9882.00000 0.961
9884.00000 0.961
9886.00000 0.961
9888.00000 0.961
9890.00000 0.961
9892.00000 0.961
9894.00000 0.961
9896.00000 0.961
9898.00000 0.961
9900.00000 0.961
9902.00000 0.961
9904.00000 0.961
9906.00000 0.961
9908.00000 0.961
9910.00000 0.961
9912.00000 0.962
9914.00000 0.962
9916.00000 0.962
9918.00000 0.962
9920.00000 0.962
9922.00000 0.962
9924.00000 0.962
9926.00000 0.962
9928.00000 0.962
9930.00000 0.962
9932.00000 0.962
9934.00000 0.962
9936.00000 0.962
9938.00000 0.962
9940.00000 0.962
9942.00000 0.963
9944.00000 0.963
9946.00000 0.963
9948.00000 0.963
9950.00000 0.963
9952.00000 0.963
9954.00000 0.963
9956.00000 0.963
9958.00000 0.963
9960.00000 0.963
9962.00000 0.963
9964.00000 0.963
9966.00000 0.963
9968.00000 0.963
9970.00000 0.964
9972.00000 0.964
9974.00000 0.964
9976.00000 0.964
9978.00000 0.963
9980.00000 0.964
9982.00000 0.964
9984.00000 0.964
9986.00000 0.964
9988.00000 0.964
9990.00000 0.964
9992.00000 0.964
9994.00000 0.965
9996.00000 0.965
9998.00000 0.965
10000.00000 0.965
11000.00000 0.0
