# %ECSV 0.9
# ---
# datatype:
# - {name: wavelength, unit: Angstrom, datatype: float32}
# - {name: response, datatype: float32}
# meta: !!omap
# - {band_name: i}
# - {group_name: GMOS_S}
wavelength response
6175.79980 0.0
6862.00000 0.004
6864.00000 0.004
6866.00000 0.005
6868.00000 0.005
6870.00000 0.006
6872.00000 0.006
6874.00000 0.007
6876.00000 0.007
6878.00000 0.008
6880.00000 0.009
6882.00000 0.01
6884.00000 0.011
6886.00000 0.012
6888.00000 0.013
6890.00000 0.014
6892.00000 0.016
6894.00000 0.017
6896.00000 0.018
6898.00000 0.02
6900.00000 0.022
6902.00000 0.023
6904.00000 0.025
6906.00000 0.027
6908.00000 0.029
6910.00000 0.031
6912.00000 0.034
6914.00000 0.036
6916.00000 0.039
6918.00000 0.041
6920.00000 0.044
6922.00000 0.047
6924.00000 0.05
6926.00000 0.053
6928.00000 0.057
6930.00000 0.06
6932.00000 0.064
6934.00000 0.067
6936.00000 0.071
6938.00000 0.075
6940.00000 0.08
6942.00000 0.084
6944.00000 0.088
6946.00000 0.093
6948.00000 0.098
6950.00000 0.102
6952.00000 0.107
6954.00000 0.113
6956.00000 0.118
6958.00000 0.123
6960.00000 0.129
6962.00000 0.135
6964.00000 0.14
6966.00000 0.146
6968.00000 0.152
6970.00000 0.158
6972.00000 0.164
6974.00000 0.171
6976.00000 0.177
6978.00000 0.184
6980.00000 0.19
6982.00000 0.197
6984.00000 0.204
6986.00000 0.211
6988.00000 0.218
6990.00000 0.225
6992.00000 0.232
6994.00000 0.239
6996.00000 0.246
6998.00000 0.254
7000.00000 0.261
7002.00000 0.269
7004.00000 0.276
7006.00000 0.284
7008.00000 0.291
7010.00000 0.298
7012.00000 0.306
7014.00000 0.314
7016.00000 0.322
7018.00000 0.33
7020.00000 0.338
7022.00000 0.345
7024.00000 0.353
7026.00000 0.36
7028.00000 0.369
7030.00000 0.376
7032.00000 0.384
7034.00000 0.392
7036.00000 0.399
7038.00000 0.407
7040.00000 0.415
7042.00000 0.423
7044.00000 0.43
7046.00000 0.438
7048.00000 0.445
7050.00000 0.453
7052.00000 0.46
7054.00000 0.467
7056.00000 0.475
7058.00000 0.483
7060.00000 0.49
7062.00000 0.497
7064.00000 0.504
7066.00000 0.511
7068.00000 0.518
7070.00000 0.525
7072.00000 0.532
7074.00000 0.539
7076.00000 0.546
7078.00000 0.553
7080.00000 0.559
7082.00000 0.566
7084.00000 0.573
7086.00000 0.579
7088.00000 0.586
7090.00000 0.592
7092.00000 0.598
7094.00000 0.605
7096.00000 0.611
7098.00000 0.617
7100.00000 0.623
7102.00000 0.629
7104.00000 0.635
7106.00000 0.64
7108.00000 0.646
7110.00000 0.651
7112.00000 0.657
7114.00000 0.662
7116.00000 0.668
7118.00000 0.673
7120.00000 0.678
7122.00000 0.683
7124.00000 0.687
7126.00000 0.693
7128.00000 0.698
7130.00000 0.702
7132.00000 0.707
7134.00000 0.712
7136.00000 0.717
7138.00000 0.72
7140.00000 0.725
7142.00000 0.728
7144.00000 0.733
7146.00000 0.737
7148.00000 0.741
7150.00000 0.745
7152.00000 0.749
7154.00000 0.752
7156.00000 0.756
7158.00000 0.76
7160.00000 0.764
7162.00000 0.767
7164.00000 0.771
7166.00000 0.774
7168.00000 0.777
7170.00000 0.78
7172.00000 0.784
7174.00000 0.787
7176.00000 0.79
7178.00000 0.793
7180.00000 0.796
7182.00000 0.799
7184.00000 0.801
7186.00000 0.804
7188.00000 0.807
7190.00000 0.81
7192.00000 0.812
7194.00000 0.815
7196.00000 0.817
7198.00000 0.819
7200.00000 0.823
7202.00000 0.825
7204.00000 0.827
7206.00000 0.83
7208.00000 0.832
7210.00000 0.834
7212.00000 0.837
7214.00000 0.838
7216.00000 0.841
7218.00000 0.843
7220.00000 0.845
7222.00000 0.848
7224.00000 0.849
7226.00000 0.851
7228.00000 0.853
7230.00000 0.854
7232.00000 0.857
7234.00000 0.858
7236.00000 0.86
7238.00000 0.862
7240.00000 0.865
7242.00000 0.866
7244.00000 0.867
7246.00000 0.869
7248.00000 0.871
7250.00000 0.873
7252.00000 0.874
7254.00000 0.875
7256.00000 0.877
7258.00000 0.878
7260.00000 0.88
7262.00000 0.882
7264.00000 0.883
7266.00000 0.885
7268.00000 0.887
7270.00000 0.887
7272.00000 0.889
7274.00000 0.89
7276.00000 0.892
7278.00000 0.893
7280.00000 0.894
7282.00000 0.896
7284.00000 0.897
7286.00000 0.899
7288.00000 0.9
7290.00000 0.9
7292.00000 0.902
7294.00000 0.903
7296.00000 0.905
7298.00000 0.906
7300.00000 0.907
7302.00000 0.908
7304.00000 0.909
7306.00000 0.911
7308.00000 0.912
7310.00000 0.913
7312.00000 0.914
7314.00000 0.914
7316.00000 0.916
7318.00000 0.916
7320.00000 0.917
7322.00000 0.918
7324.00000 0.92
7326.00000 0.92
7328.00000 0.922
7330.00000 0.922
7332.00000 0.922
7334.00000 0.924
7336.00000 0.924
7338.00000 0.926
7340.00000 0.927
7342.00000 0.927
7344.00000 0.928
7346.00000 0.928
7348.00000 0.93
7350.00000 0.929
7352.00000 0.931
7354.00000 0.931
7356.00000 0.932
7358.00000 0.933
7360.00000 0.933
7362.00000 0.935
7364.00000 0.935
7366.00000 0.935
7368.00000 0.936
7370.00000 0.936
7372.00000 0.937
7374.00000 0.937
7376.00000 0.938
7378.00000 0.938
7380.00000 0.939
7382.00000 0.939
7384.00000 0.94
7386.00000 0.94
7388.00000 0.941
7390.00000 0.941
7392.00000 0.941
7394.00000 0.942
7396.00000 0.942
7398.00000 0.943
7400.00000 0.942
7402.00000 0.943
7404.00000 0.943
7406.00000 0.944
7408.00000 0.944
7410.00000 0.945
7412.00000 0.945
7414.00000 0.946
7416.00000 0.946
7418.00000 0.946
7420.00000 0.946
7422.00000 0.947
7424.00000 0.947
7426.00000 0.947
7428.00000 0.947
7430.00000 0.948
7432.00000 0.948
7434.00000 0.948
7436.00000 0.949
7438.00000 0.949
7440.00000 0.949
7442.00000 0.95
7444.00000 0.95
7446.00000 0.95
7448.00000 0.95
7450.00000 0.951
7452.00000 0.951
7454.00000 0.951
7456.00000 0.951
7458.00000 0.952
7460.00000 0.952
7462.00000 0.952
7464.00000 0.952
7466.00000 0.953
7468.00000 0.952
7470.00000 0.953
7472.00000 0.953
7474.00000 0.954
7476.00000 0.953
7478.00000 0.953
7480.00000 0.954
7482.00000 0.954
7484.00000 0.955
7486.00000 0.955
7488.00000 0.955
7490.00000 0.956
7492.00000 0.954
7494.00000 0.956
7496.00000 0.956
7498.00000 0.956
7500.00000 0.957
7502.00000 0.956
7504.00000 0.957
7506.00000 0.957
7508.00000 0.957
7510.00000 0.957
7512.00000 0.958
7514.00000 0.958
7516.00000 0.958
7518.00000 0.958
7520.00000 0.959
7522.00000 0.959
7524.00000 0.959
7526.00000 0.96
7528.00000 0.961
7530.00000 0.961
7532.00000 0.961
7534.00000 0.961
7536.00000 0.961
7538.00000 0.962
7540.00000 0.961
7542.00000 0.962
7544.00000 0.961
7546.00000 0.962
7548.00000 0.962
7550.00000 0.961
7552.00000 0.963
7554.00000 0.963
7556.00000 0.962
7558.00000 0.963
7560.00000 0.963
7562.00000 0.964
7564.00000 0.963
7566.00000 0.963
7568.00000 0.963
7570.00000 0.964
7572.00000 0.965
7574.00000 0.964
7576.00000 0.965
7578.00000 0.965
7580.00000 0.965
7582.00000 0.964
7584.00000 0.964
7586.00000 0.965
7588.00000 0.966
7590.00000 0.965
7592.00000 0.965
7594.00000 0.966
7596.00000 0.966
7598.00000 0.963
7600.00000 0.964
7602.00000 0.965
7604.00000 0.965
7606.00000 0.965
7608.00000 0.966
7610.00000 0.965
7612.00000 0.966
7614.00000 0.965
7616.00000 0.964
7618.00000 0.965
7620.00000 0.965
7622.00000 0.966
7624.00000 0.965
7626.00000 0.965
7628.00000 0.965
7630.00000 0.964
7632.00000 0.965
7634.00000 0.964
7636.00000 0.964
7638.00000 0.965
7640.00000 0.964
7642.00000 0.966
7644.00000 0.964
7646.00000 0.963
7648.00000 0.965
7650.00000 0.965
7652.00000 0.965
7654.00000 0.965
7656.00000 0.964
7658.00000 0.963
7660.00000 0.963
7662.00000 0.963
7664.00000 0.965
7666.00000 0.964
7668.00000 0.964
7670.00000 0.964
7672.00000 0.965
7674.00000 0.964
7676.00000 0.965
7678.00000 0.964
7680.00000 0.964
7682.00000 0.965
7684.00000 0.964
7686.00000 0.963
7688.00000 0.965
7690.00000 0.964
7692.00000 0.965
7694.00000 0.964
7696.00000 0.965
7698.00000 0.964
7700.00000 0.963
7702.00000 0.964
7704.00000 0.963
7706.00000 0.964
7708.00000 0.964
7710.00000 0.964
7712.00000 0.964
7714.00000 0.965
7716.00000 0.963
7718.00000 0.964
7720.00000 0.964
7722.00000 0.965
7724.00000 0.964
7726.00000 0.964
7728.00000 0.965
7730.00000 0.964
7732.00000 0.965
7734.00000 0.965
7736.00000 0.966
7738.00000 0.966
7740.00000 0.966
7742.00000 0.966
7744.00000 0.965
7746.00000 0.966
7748.00000 0.967
7750.00000 0.965
7752.00000 0.966
7754.00000 0.966
7756.00000 0.966
7758.00000 0.967
7760.00000 0.968
7762.00000 0.967
7764.00000 0.967
7766.00000 0.967
7768.00000 0.968
7770.00000 0.968
7772.00000 0.967
7774.00000 0.968
7776.00000 0.968
7778.00000 0.968
7780.00000 0.967
7782.00000 0.969
7784.00000 0.967
7786.00000 0.968
7788.00000 0.968
7790.00000 0.968
7792.00000 0.967
7794.00000 0.968
7796.00000 0.969
7798.00000 0.968
7800.00000 0.967
7802.00000 0.968
7804.00000 0.968
7806.00000 0.968
7808.00000 0.968
7810.00000 0.968
7812.00000 0.969
7814.00000 0.968
7816.00000 0.969
7818.00000 0.968
7820.00000 0.968
7822.00000 0.968
7824.00000 0.967
7826.00000 0.968
7828.00000 0.968
7830.00000 0.966
7832.00000 0.968
7834.00000 0.967
7836.00000 0.968
7838.00000 0.967
7840.00000 0.966
7842.00000 0.967
7844.00000 0.966
7846.00000 0.966
7848.00000 0.967
7850.00000 0.966
7852.00000 0.967
7854.00000 0.966
7856.00000 0.966
7858.00000 0.967
7860.00000 0.966
7862.00000 0.966
7864.00000 0.966
7866.00000 0.965
7868.00000 0.966
7870.00000 0.966
7872.00000 0.966
7874.00000 0.965
7876.00000 0.966
7878.00000 0.965
7880.00000 0.965
7882.00000 0.965
7884.00000 0.965
7886.00000 0.965
7888.00000 0.965
7890.00000 0.964
7892.00000 0.965
7894.00000 0.965
7896.00000 0.965
7898.00000 0.967
7900.00000 0.965
7902.00000 0.965
7904.00000 0.966
7906.00000 0.965
7908.00000 0.964
7910.00000 0.964
7912.00000 0.965
7914.00000 0.965
7916.00000 0.965
7918.00000 0.966
7920.00000 0.965
7922.00000 0.965
7924.00000 0.965
7926.00000 0.964
7928.00000 0.965
7930.00000 0.965
7932.00000 0.965
7934.00000 0.965
7936.00000 0.966
7938.00000 0.966
7940.00000 0.966
7942.00000 0.966
7944.00000 0.967
7946.00000 0.968
7948.00000 0.967
7950.00000 0.967
7952.00000 0.967
7954.00000 0.968
7956.00000 0.967
7958.00000 0.967
7960.00000 0.967
7962.00000 0.966
7964.00000 0.967
7966.00000 0.968
7968.00000 0.968
7970.00000 0.968
7972.00000 0.968
7974.00000 0.968
7976.00000 0.968
7978.00000 0.968
7980.00000 0.97
7982.00000 0.97
7984.00000 0.969
7986.00000 0.969
7988.00000 0.969
7990.00000 0.969
7992.00000 0.969
7994.00000 0.971
7996.00000 0.97
7998.00000 0.97
8000.00000 0.97
8002.00000 0.971
8004.00000 0.971
8006.00000 0.972
8008.00000 0.971
8010.00000 0.972
8012.00000 0.971
8014.00000 0.97
8016.00000 0.971
8018.00000 0.971
8020.00000 0.971
8022.00000 0.972
8024.00000 0.971
8026.00000 0.97
8028.00000 0.972
8030.00000 0.972
8032.00000 0.97
8034.00000 0.971
8036.00000 0.973
8038.00000 0.971
8040.00000 0.972
8042.00000 0.971
8044.00000 0.972
8046.00000 0.972
8048.00000 0.972
8050.00000 0.972
8052.00000 0.972
8054.00000 0.972
8056.00000 0.972
8058.00000 0.972
8060.00000 0.972
8062.00000 0.973
8064.00000 0.971
8066.00000 0.972
8068.00000 0.972
8070.00000 0.971
8072.00000 0.972
8074.00000 0.972
8076.00000 0.972
8078.00000 0.973
8080.00000 0.972
8082.00000 0.971
8084.00000 0.972
8086.00000 0.971
8088.00000 0.971
8090.00000 0.971
8092.00000 0.972
8094.00000 0.972
8096.00000 0.972
8098.00000 0.971
8100.00000 0.97
8102.00000 0.972
8104.00000 0.972
8106.00000 0.97
8108.00000 0.97
8110.00000 0.972
8112.00000 0.971
8114.00000 0.971
8116.00000 0.969
8118.00000 0.97
8120.00000 0.971
8122.00000 0.969
8124.00000 0.97
8126.00000 0.97
8128.00000 0.97
8130.00000 0.971
8132.00000 0.97
8134.00000 0.972
8136.00000 0.971
8138.00000 0.97
8140.00000 0.969
8142.00000 0.97
8144.00000 0.969
8146.00000 0.971
8148.00000 0.97
8150.00000 0.969
8152.00000 0.97
8154.00000 0.971
8156.00000 0.97
8158.00000 0.97
8160.00000 0.97
8162.00000 0.969
8164.00000 0.97
8166.00000 0.971
8168.00000 0.97
8170.00000 0.971
8172.00000 0.971
8174.00000 0.97
8176.00000 0.971
8178.00000 0.97
8180.00000 0.97
8182.00000 0.971
8184.00000 0.97
8186.00000 0.97
8188.00000 0.971
8190.00000 0.967
8192.00000 0.969
8194.00000 0.969
8196.00000 0.972
8198.00000 0.97
8200.00000 0.969
8202.00000 0.97
8204.00000 0.97
8206.00000 0.969
8208.00000 0.97
8210.00000 0.97
8212.00000 0.969
8214.00000 0.97
8216.00000 0.969
8218.00000 0.97
8220.00000 0.969
8222.00000 0.969
8224.00000 0.97
8226.00000 0.968
8228.00000 0.97
8230.00000 0.968
8232.00000 0.968
8234.00000 0.968
8236.00000 0.968
8238.00000 0.968
8240.00000 0.969
8242.00000 0.97
8244.00000 0.969
8246.00000 0.968
8248.00000 0.969
8250.00000 0.969
8252.00000 0.968
8254.00000 0.969
8256.00000 0.969
8258.00000 0.968
8260.00000 0.97
8262.00000 0.97
8264.00000 0.969
8266.00000 0.968
8268.00000 0.968
8270.00000 0.968
8272.00000 0.97
8274.00000 0.97
8276.00000 0.968
8278.00000 0.968
8280.00000 0.968
8282.00000 0.969
8284.00000 0.97
8286.00000 0.968
8288.00000 0.966
8290.00000 0.969
8292.00000 0.968
8294.00000 0.967
8296.00000 0.966
8298.00000 0.968
8300.00000 0.966
8302.00000 0.967
8304.00000 0.966
8306.00000 0.964
8308.00000 0.967
8310.00000 0.963
8312.00000 0.964
8314.00000 0.963
8316.00000 0.962
8318.00000 0.961
8320.00000 0.961
8322.00000 0.959
8324.00000 0.958
8326.00000 0.957
8328.00000 0.956
8330.00000 0.954
8332.00000 0.954
8334.00000 0.949
8336.00000 0.949
8338.00000 0.946
8340.00000 0.945
8342.00000 0.942
8344.00000 0.94
8346.00000 0.939
8348.00000 0.936
8350.00000 0.932
8352.00000 0.928
8354.00000 0.927
8356.00000 0.926
8358.00000 0.92
8360.00000 0.917
8362.00000 0.914
8364.00000 0.91
8366.00000 0.907
8368.00000 0.904
8370.00000 0.899
8372.00000 0.895
8374.00000 0.891
8376.00000 0.89
8378.00000 0.885
8380.00000 0.882
8382.00000 0.877
8384.00000 0.874
8386.00000 0.87
8388.00000 0.867
8390.00000 0.863
8392.00000 0.862
8394.00000 0.857
8396.00000 0.853
8398.00000 0.849
8400.00000 0.846
8402.00000 0.843
8404.00000 0.84
8406.00000 0.838
8408.00000 0.837
8410.00000 0.834
8412.00000 0.833
8414.00000 0.831
8416.00000 0.831
8418.00000 0.829
8420.00000 0.828
8422.00000 0.83
8424.00000 0.83
8426.00000 0.832
8428.00000 0.832
8430.00000 0.835
8432.00000 0.835
8434.00000 0.839
8436.00000 0.842
8438.00000 0.844
8440.00000 0.849
8442.00000 0.853
8444.00000 0.858
8446.00000 0.864
8448.00000 0.868
8450.00000 0.874
8452.00000 0.879
8454.00000 0.886
8456.00000 0.894
8458.00000 0.9
8460.00000 0.907
8462.00000 0.912
8464.00000 0.916
8466.00000 0.922
8468.00000 0.925
8470.00000 0.927
8472.00000 0.928
8474.00000 0.925
8476.00000 0.924
8478.00000 0.917
8480.00000 0.909
8482.00000 0.9
8484.00000 0.885
8486.00000 0.867
8488.00000 0.848
8490.00000 0.824
8492.00000 0.797
8494.00000 0.769
8496.00000 0.737
8498.00000 0.704
8500.00000 0.473
8502.00000 0.463
8504.00000 0.453
8506.00000 0.443
8508.00000 0.433
8510.00000 0.423
8512.00000 0.413
8514.00000 0.403
8516.00000 0.394
8518.00000 0.383
8520.00000 0.373
8522.00000 0.363
8524.00000 0.352
8526.00000 0.342
8528.00000 0.333
8530.00000 0.324
8532.00000 0.314
8534.00000 0.304
8536.00000 0.295
8538.00000 0.286
8540.00000 0.277
8542.00000 0.269
8544.00000 0.259
8546.00000 0.251
8548.00000 0.242
8550.00000 0.234
8552.00000 0.224
8554.00000 0.216
8556.00000 0.209
8558.00000 0.201
8560.00000 0.192
8562.00000 0.185
8564.00000 0.177
8566.00000 0.171
8568.00000 0.163
8570.00000 0.156
8572.00000 0.149
8574.00000 0.142
8576.00000 0.136
8578.00000 0.128
8580.00000 0.122
8582.00000 0.117
8584.00000 0.109
8586.00000 0.105
8588.00000 0.098
8590.00000 0.094
8592.00000 0.088
8594.00000 0.083
8596.00000 0.078
8598.00000 0.074
8600.00000 0.068
8602.00000 0.064
8604.00000 0.059
8606.00000 0.055
8608.00000 0.051
8610.00000 0.048
8612.00000 0.044
8614.00000 0.04
8616.00000 0.038
8618.00000 0.035
8620.00000 0.032
8622.00000 0.029
8624.00000 0.027
8626.00000 0.025
8628.00000 0.022
8630.00000 0.02
8632.00000 0.018
8634.00000 0.017
8636.00000 0.015
8638.00000 0.014
8640.00000 0.013
8642.00000 0.012
8644.00000 0.011
8646.00000 0.01
8648.00000 0.009
8650.00000 0.008
8652.00000 0.008
8654.00000 0.007
8656.00000 0.006
8658.00000 0.006
8660.00000 0.005
8662.00000 0.005
8664.00000 0.005
8666.00000 0.004
8668.00000 0.004
8670.00000 0.004
9537.00000 0.0
