# %ECSV 0.9
# ---
# datatype:
# - {name: wavelength, unit: Angstrom, datatype: float32}
# - {name: response, datatype: float32}
# meta: !!omap
# - {band_name: Mprime_G0208w}
# - {group_name: NIRI}
wavelength response
40401.00000 0.0
44890.00000 0.0043
44900.00000 0.0047
44910.00000 0.0052
44920.00000 0.0057
44930.00000 0.0064
44940.00000 0.007
44950.00000 0.0078
44960.00000 0.0086
44970.00000 0.0094
44980.00000 0.0104
44990.00000 0.0114
45000.00000 0.0125
45010.00000 0.0137
45020.00000 0.0149
45030.00000 0.0161
45040.00000 0.0174
45050.00000 0.0186
45060.00000 0.0199
45070.00000 0.0212
45080.00000 0.0225
45090.00000 0.0237
45100.00000 0.025
45110.00000 0.0262
45120.00000 0.0275
45130.00000 0.0288
45140.00000 0.0303
45150.00000 0.0321
45160.00000 0.034
45170.00000 0.0363
45180.00000 0.039
45190.00000 0.0421
45200.00000 0.0456
45210.00000 0.0497
45220.00000 0.0542
45230.00000 0.0592
45240.00000 0.0646
45250.00000 0.0705
45260.00000 0.0767
45270.00000 0.0834
45280.00000 0.0905
45290.00000 0.098
45300.00000 0.1059
45310.00000 0.1142
45320.00000 0.1229
45330.00000 0.1322
45340.00000 0.1423
45350.00000 0.1535
45360.00000 0.1664
45370.00000 0.1808
45380.00000 0.1964
45390.00000 0.2123
45400.00000 0.2277
45410.00000 0.2419
45420.00000 0.2544
45430.00000 0.2665
45440.00000 0.2801
45450.00000 0.297
45460.00000 0.319
45470.00000 0.3476
45480.00000 0.3815
45490.00000 0.4182
45500.00000 0.4548
45510.00000 0.4872
45520.00000 0.5125
45530.00000 0.5341
45540.00000 0.5575
45550.00000 0.5877
45560.00000 0.6223
45570.00000 0.6558
45580.00000 0.6832
45590.00000 0.7047
45600.00000 0.7241
45610.00000 0.7451
45620.00000 0.7676
45630.00000 0.7883
45640.00000 0.8044
45650.00000 0.8168
45660.00000 0.8272
45670.00000 0.837
45680.00000 0.8464
45690.00000 0.8551
45700.00000 0.8628
45710.00000 0.8692
45720.00000 0.8744
45730.00000 0.8786
45740.00000 0.882
45750.00000 0.8847
45760.00000 0.8868
45770.00000 0.8884
45780.00000 0.8897
45790.00000 0.8906
45800.00000 0.8912
45810.00000 0.8916
45820.00000 0.8917
45830.00000 0.8917
45840.00000 0.8916
45850.00000 0.8913
45860.00000 0.891
45870.00000 0.8906
45880.00000 0.8902
45890.00000 0.8899
45900.00000 0.8895
45910.00000 0.8893
45920.00000 0.8892
45930.00000 0.8891
45940.00000 0.8893
45950.00000 0.8895
45960.00000 0.8898
45970.00000 0.8902
45980.00000 0.8907
45990.00000 0.8913
46000.00000 0.892
46010.00000 0.8927
46020.00000 0.8935
46030.00000 0.8944
46040.00000 0.8953
46050.00000 0.8962
46060.00000 0.8971
46070.00000 0.8981
46080.00000 0.899
46090.00000 0.8999
46100.00000 0.9007
46110.00000 0.9015
46120.00000 0.9022
46130.00000 0.9028
46140.00000 0.9034
46150.00000 0.904
46160.00000 0.9045
46170.00000 0.9049
46180.00000 0.9053
46190.00000 0.9057
46200.00000 0.906
46210.00000 0.9064
46220.00000 0.9067
46230.00000 0.907
46240.00000 0.9072
46250.00000 0.9075
46260.00000 0.9076
46270.00000 0.9077
46280.00000 0.9077
46290.00000 0.9076
46300.00000 0.9074
46310.00000 0.9072
46320.00000 0.9068
46330.00000 0.9062
46340.00000 0.9056
46350.00000 0.9048
46360.00000 0.9039
46370.00000 0.903
46380.00000 0.902
46390.00000 0.9009
46400.00000 0.8998
46410.00000 0.8987
46420.00000 0.8976
46430.00000 0.8966
46440.00000 0.8955
46450.00000 0.8945
46460.00000 0.8934
46470.00000 0.8924
46480.00000 0.8914
46490.00000 0.8904
46500.00000 0.8894
46510.00000 0.8884
46520.00000 0.8875
46530.00000 0.8865
46540.00000 0.8856
46550.00000 0.8846
46560.00000 0.8836
46570.00000 0.8826
46580.00000 0.8815
46590.00000 0.8804
46600.00000 0.8793
46610.00000 0.8781
46620.00000 0.8769
46630.00000 0.8757
46640.00000 0.8745
46650.00000 0.8734
46660.00000 0.8723
46670.00000 0.8713
46680.00000 0.8703
46690.00000 0.8694
46700.00000 0.8687
46710.00000 0.868
46720.00000 0.8674
46730.00000 0.8669
46740.00000 0.8664
46750.00000 0.8661
46760.00000 0.8658
46770.00000 0.8655
46780.00000 0.8653
46790.00000 0.8652
46800.00000 0.8651
46810.00000 0.865
46820.00000 0.865
46830.00000 0.8651
46840.00000 0.8651
46850.00000 0.8652
46860.00000 0.8653
46870.00000 0.8655
46880.00000 0.8656
46890.00000 0.8658
46900.00000 0.866
46910.00000 0.8662
46920.00000 0.8664
46930.00000 0.8666
46940.00000 0.8669
46950.00000 0.8671
46960.00000 0.8675
46970.00000 0.8678
46980.00000 0.8682
46990.00000 0.8687
47000.00000 0.8692
47010.00000 0.8698
47020.00000 0.8704
47030.00000 0.8711
47040.00000 0.8718
47050.00000 0.8726
47060.00000 0.8734
47070.00000 0.8743
47080.00000 0.8752
47090.00000 0.8762
47100.00000 0.8771
47110.00000 0.8781
47120.00000 0.8791
47130.00000 0.88
47140.00000 0.8809
47150.00000 0.8818
47160.00000 0.8826
47170.00000 0.8834
47180.00000 0.884
47190.00000 0.8846
47200.00000 0.8851
47210.00000 0.8855
47220.00000 0.8858
47230.00000 0.886
47240.00000 0.8862
47250.00000 0.8862
47260.00000 0.8861
47270.00000 0.8859
47280.00000 0.8856
47290.00000 0.8852
47300.00000 0.8848
47310.00000 0.8843
47320.00000 0.8837
47330.00000 0.8832
47340.00000 0.8827
47350.00000 0.8822
47360.00000 0.8818
47370.00000 0.8814
47380.00000 0.8812
47390.00000 0.8809
47400.00000 0.8804
47410.00000 0.8798
47420.00000 0.8789
47430.00000 0.8775
47440.00000 0.8757
47450.00000 0.8733
47460.00000 0.8704
47470.00000 0.8671
47480.00000 0.8635
47490.00000 0.8599
47500.00000 0.8562
47510.00000 0.8527
47520.00000 0.8494
47530.00000 0.846
47540.00000 0.8424
47550.00000 0.8385
47560.00000 0.8342
47570.00000 0.8293
47580.00000 0.8237
47590.00000 0.8172
47600.00000 0.8096
47610.00000 0.801
47620.00000 0.792
47630.00000 0.7836
47640.00000 0.7766
47650.00000 0.7705
47660.00000 0.7645
47670.00000 0.7575
47680.00000 0.7489
47690.00000 0.7389
47700.00000 0.7285
47710.00000 0.7185
47720.00000 0.7091
47730.00000 0.6995
47740.00000 0.6891
47750.00000 0.6773
47760.00000 0.6633
47770.00000 0.6475
47780.00000 0.6314
47790.00000 0.6168
47800.00000 0.605
47810.00000 0.595
47820.00000 0.5853
47830.00000 0.5743
47840.00000 0.5607
47850.00000 0.5443
47860.00000 0.5268
47870.00000 0.5098
47880.00000 0.4945
47890.00000 0.4806
47900.00000 0.4677
47910.00000 0.455
47920.00000 0.442
47930.00000 0.4282
47940.00000 0.4133
47950.00000 0.3977
47960.00000 0.3817
47970.00000 0.3658
47980.00000 0.3502
47990.00000 0.3348
48000.00000 0.3198
48010.00000 0.3053
48020.00000 0.2913
48030.00000 0.2779
48040.00000 0.2651
48050.00000 0.2531
48060.00000 0.2418
48070.00000 0.2313
48080.00000 0.2214
48090.00000 0.2121
48100.00000 0.2033
48110.00000 0.1948
48120.00000 0.1865
48130.00000 0.1785
48140.00000 0.1705
48150.00000 0.1627
48160.00000 0.1551
48170.00000 0.1477
48180.00000 0.1405
48190.00000 0.1336
48200.00000 0.1269
48210.00000 0.1206
48220.00000 0.1145
48230.00000 0.1086
48240.00000 0.1029
48250.00000 0.0973
48260.00000 0.0919
48270.00000 0.0866
48280.00000 0.0815
48290.00000 0.0765
48300.00000 0.0718
48310.00000 0.0672
48320.00000 0.0629
48330.00000 0.0589
48340.00000 0.055
48350.00000 0.0515
48360.00000 0.0483
48370.00000 0.0453
48380.00000 0.0426
48390.00000 0.0402
48400.00000 0.038
48410.00000 0.036
48420.00000 0.0343
48430.00000 0.0326
48440.00000 0.0312
48450.00000 0.0298
48460.00000 0.0286
48470.00000 0.0274
48480.00000 0.0263
48490.00000 0.0253
48500.00000 0.0243
48510.00000 0.0234
48520.00000 0.0226
48530.00000 0.0218
48540.00000 0.021
48550.00000 0.0202
48560.00000 0.0195
48570.00000 0.0187
48580.00000 0.018
48590.00000 0.0172
48600.00000 0.0165
48610.00000 0.0158
48620.00000 0.015
48630.00000 0.0143
48640.00000 0.0136
48650.00000 0.0129
48660.00000 0.0122
48670.00000 0.0115
48680.00000 0.0109
48690.00000 0.0103
48700.00000 0.0097
48710.00000 0.0092
48720.00000 0.0087
48730.00000 0.0082
48740.00000 0.0078
48750.00000 0.0074
48760.00000 0.007
48770.00000 0.0066
48780.00000 0.0063
48790.00000 0.006
48800.00000 0.0057
48810.00000 0.0054
48820.00000 0.0052
48830.00000 0.0049
48840.00000 0.0047
48850.00000 0.0045
48860.00000 0.0043
48870.00000 0.0041
53757.00000 0.0
